File: XRD/H-560.RAW
BANK       1    3529     352  CONST  2000.84    1.70     0.0     0.0         STD
     692     626     611     635     609     616     624     628     612     606
     617     638     616     560     592     620     619     601     593     585
     585     576     592     645     632     604     607     605     583     582
     580     566     576     620     588     589     557     558     592     583
     575     610     569     596     604     552     575     562     563     592
     591     565     557     577     529     573     555     605     565     556
     552     576     560     604     617     550     590     595     593     579
     539     549     564     568     572     552     564     555     528     538
     562     559     550     539     546     560     557     529     543     554
     545     575     584     554     563     541     547     532     518     534
     533     562     545     534     531     509     563     538     543     522
     533     488     485     481     501     518     532     512     508     540
     527     519     529     481     474     524     522     505     518     516
     506     508     494     516     514     516     490     498     507     532
     512     510     491     476     480     492     509     511     488     483
     510     511     518     509     492     503     491     501     465     492
     470     492     478     480     501     463     466     491     508     423
     467     459     522     481     493     485     489     479     474     489
     451     497     498     480     478     447     444     443     465     483
     463     455     476     472     474     464     435     450     467     491
     480     474     476     487     471     462     469     451     445     475
     476     460     451     433     477     483     440     453     450     433
     439     444     428     467     464     426     419     436     460     440
     452     428     466     440     437     438     434     423     383     457
     450     461     435     417     448     456     465     433     425     452
     438     432     450     412     384     394     410     430     428     415
     419     421     415     411     426     436     436     417     408     438
     459     441     473     424     410     425     418     430     390     422
     404     400     390     352     396     416     400     414     470     400
     382     394     380     396     415     394     379     392     401     363
     407     407     384     378     377     409     422     393     404     392
     403     429     408     381     400     401     396     389     396     395
     387     402     366     371     409     410     385     398     393     383
     372     377     382     350     394     367     372     398     395     396
     376     372     351     336     360     365     345     372     380     360
     360     369     393     386     369     351     379     378     387     341
     378     377     376     385     379     378     405     400     364     356
     356     364     368     340     360     370     368     368     353     354
     360     379     363     355     390     389     369     356     343     356
     362     380     359     354     342     391     381     349     351     368
     393     337     375     353     371     381     336     385     342     350
     335     342     339     356     400     382     346     345     340     345
     337     346     334     337     340     336     350     342     348     345
     356     354     336     335     330     320     326     341     338     336
     341     332     339     357     330     320     323     319     339     333
     341     320     335     347     336     361     349     308     316     353
     314     323     335     350     379     355     337     291     323     341
     328     319     317     327     347     328     323     327     307     331
     325     332     322     303     314     334     350     344     326     332
     323     297     313     331     323     324     326     303     291     317
     329     311     315     323     326     330     304     307     326     306
     313     313     341     338     317     316     307     315     314     287
     269     308     303     297     298     318     289     322     314     321
     335     323     316     349     321     310     307     323     340     308
     298     281     295     299     325     322     335     325     323     309
     321     353     351     325     317     329     313     307     304     310
     310     285     264     286     303     320     291     274     297     310
     287     304     295     255     274     276     285     284     317     284
     304     281     306     287     262     295     269     298     273     299
     304     287     284     285     300     305     305     273     279     297
     293     295     284     287     290     305     291     272     273     277
     270     278     297     292     292     291     280     287     274     249
     271     282     289     255     276     286     274     272     274     290
     254     276     268     271     320     286     262     290     277     237
     281     278     267     264     301     281     274     296     269     271
     286     268     256     253     261     276     253     245     259     288
     286     292     282     265     289     271     258     271     274     269
     271     263     275     280     291     286     291     285     265     258
     261     265     265     250     282     275     219     263     283     290
     289     253     246     255     259     276     270     275     272     277
     244     260     269     268     268     255     262     279     275     274
     252     266     245     246     257     273     281     282     276     260
     262     279     264     255     262     264     273     262     253     265
     273     277     269     251     254     250     255     257     259     255
     253     239     247     256     279     246     270     285     231     268
     260     248     285     258     257     239     243     280     255     242
     252     247     237     239     262     230     241     291     273     247
     261     252     254     246     264     259     250     246     236     242
     240     243     252     239     249     261     254     237     236     257
     269     260     240     241     253     252     255     231     244     254
     281     259     255     242     291     262     241     237     258     249
     280     235     237     251     267     252     263     245     259     238
     242     250     258     270     263     248     269     241     270     263
     254     225     254     259     241     260     253     246     249     254
     245     254     253     243     255     255     238     251     248     268
     269     269     291     285     265     241     268     259     253     277
     268     273     269     242     271     239     294     247     312     280
     280     281     283     286     292     305     330     315     329     307
     308     310     334     341     367     393     434     419     437     452
     474     520     536     564     618     641     697     756     769     789
     864     893     867     866     890     845     832     814     792     714
     703     638     615     600     531     504     497     427     460     454
     390     359     384     385     364     389     355     351     329     335
     364     322     305     296     312     292     288     286     302     296
     319     308     288     292     274     286     297     307     291     267
     260     248     259     261     265     282     269     259     261     256
     252     262     276     266     260     287     291     283     266     266
     257     245     260     251     260     255     272     252     289     235
     275     246     272     259     286     262     255     245     234     255
     246     248     238     262     276     251     262     258     268     255
     258     239     233     265     246     244     252     244     239     238
     247     252     237     242     251     249     263     267     268     258
     233     221     243     266     256     259     264     254     253     225
     262     267     253     296     269     280     277     233     295     276
     279     259     292     267     241     313     284     302     309     270
     296     292     307     317     318     324     314     327     341     336
     357     363     379     385     387     400     432     441     469     488
     472     520     589     639     705     774     888     985    1197    1606
    2114    2771    3174    3141    2911    2736    2879    3035    2960    2797
    2391    2057    1830    1648    1513    1308    1186    1074     937     803
     755     736     622     599     561     541     531     496     474     476
     450     462     449     456     430     394     425     367     378     379
     400     387     388     391     395     402     391     385     363     371
     394     389     388     388     394     390     361     348     370     373
     370     340     344     348     377     345     359     345     360     354
     356     352     341     358     381     383     396     389     355     418
     404     363     398     381     413     399     455     470     481     496
     514     541     515     557     596     640     681     721     733     759
     807     917     932     977    1067    1151    1274    1340    1443    1615
    1768    1902    2019    2152    2351    2526    2691    2821    2950    3031
    2979    3033    3039    2911    2795    2729    2572    2508    2211    1982
    1793    1652    1479    1364    1240    1003     948     948     787     806
     767     722     674     620     580     555     540     510     505     480
     444     435     430     413     369     373     377     326     346     337
     332     334     322     305     284     299     310     294     296     277
     246     253     275     251     274     275     249     242     230     209
     231     255     223     237     229     224     218     221     221     261
     198     246     220     187     214     230     211     203     201     209
     219     227     209     202     185     192     192     208     214     201
     186     198     203     206     188     200     192     191     198     193
     180     172     191     185     161     178     181     186     209     198
     189     174     165     184     174     173     182     196     183     173
     188     174     162     181     182     170     172     166     190     171
     187     176     169     165     180     154     182     174     159     165
     171     166     169     172     173     176     158     171     165     189
     187     175     181     166     174     176     167     156     156     159
     175     174     157     170     176     180     180     171     159     149
     161     161     152     162     158     163     171     184     145     171
     172     185     155     172     162     166     171     181     168     169
     152     149     172     154     178     151     154     160     153     163
     152     133     141     160     147     137     152     168     166     155
     162     146     142     145     156     176     160     146     162     171
     154     149     156     154     161     162     160     151     151     156
     155     181     159     156     174     187     180     169     175     173
     211     190     217     250     285     308     346     426     527     558
     532     486     436     350     363     398     402     354     309     277
     232     220     196     203     190     175     168     179     163     156
     149     155     152     152     151     162     154     148     155     138
     134     136     130     144     144     149     132     138     127     143
     144     132     142     159     133     141     163     155     127     122
     154     145     130     156     167     136     153     128     144     153
     142     145     139     150     134     154     134     127     134     139
     148     136     130     141     138     152     143     130     140     136
     127     134     141     138     133     127     129     130     136     137
     139     137     140     129     130     124     122     125     127     123
     138     141     152     137     162     143     161     136     136     138
     128     148     123     116     143     128     142     126     121     137
     130     137     144     131     133     135     118     123     117     129
     119     127     125     126     133     130     131     141     132     117
     136     141     136     138     133     128     124     133     128     127
     132     143     150     129     130     129     130     131     115     117
     130     142     146     140     124     135     126     147     130     140
     140     131     119     124     133     132     142     122     136     126
     114     104     116     115     128     139     139     126     122     129
     136     138     124     126     130     129     131     119     121     126
     121     131     128     112     122     113     123     117     121     128
     123     122     115     124     115     129     107     114     116     104
     120     117     111     125     107      94     108     128     124     131
     135     110     132     113     117     122     125     118     104     115
     126     120     121     120     126     114     114     122     119     130
     118     114     117     106     120     119     119     124     123     130
     118     107     110     119     127     127     109     103     117     121
     111     107     122     128     126     115     116     109     109     122
     114     123     117      95     114     110     122     133     111     122
     113     121     106     119     108     123     104     145     112     115
     110     131     108     118     112     117     117     106     111     113
     120     118     123     139     132     107     106     125     124     106
     106     107     111     116     116     107     123     114     105     117
     117     111     108     116     111     107     128     101     108     112
     128     131     110     101     109     109      93     111     119     125
     113     116     124     127     135     112     121     101     104     121
     123     123     124     134     122     107     118     118     123     114
     119     126     105     102     109     114     114     114     118     119
     112      94      90     105     115     125     111     103     110     116
     114     113     107     101     122      99     114     112     138     129
     124     111     120     136     100     120     116     106     116      93
     112     109      98     117     113     107     109     103     111     121
     103     111     112     117     116     114     115     106     105     111
     117     112      98     107     113     116     111     116     112     114
     129     117     108     108     114     123     116     122     101     122
     137     125     118     121     109     124     124     115     127     135
     124     126     122     123     115     108     121     135     146     122
     143     131     131     136     145     132     147     149     142     145
     147     159     172     169     171     164     169     197     204     206
     217     234     228     262     310     319     291     326     377     386
     389     440     501     501     497     538     565     573     566     576
     540     537     535     513     496     465     435     423     374     392
     346     358     317     308     304     286     247     266     239     204
     223     195     226     196     189     196     203     188     181     177
     166     156     161     176     186     170     155     145     140     150
     151     150     139     146     138     147     143     142     131     125
     120     136     137     120     137     131     115      94     124     132
     112      85     110     131     109     113     134     125     123      89
     121     123     121     131     114     111     116     120     116      95
     108     120     105     106     114     106     108     114     124     105
      99     107     116     105     106     107      96      98     102     109
     100     101     110     101     100      98      96     117     111      95
     107     107     103      97     104     103      99     108      95      99
     105     124     100      96     100      97     118     119     104     106
      95     100      89      95      93     103     111      98     107      85
     106     114     111     109     100     100     112     105     104     118
     112     109     102      99      96      99     108     106     119     111
     102     109     112     109     107     103     106     113     108     119
      97      98     103     115     116     107     102     124     117     105
     105      93      80     107     116     105     111     115      93     108
     116     110     116     104     105     119      96     119     110     105
     104     104     100     101     110     110     106      98     103     116
     110     111     112     104     109     114     117     119     124     117
     112     117     115     103      96     112     108     114      90     107
     102     103     108      98     105     115     101      97      93     115
     121     128     112     110      94     103      95     102     114      87
     102      90     102     105     103      88      87     108      90      97
      89      95      94      96      97      86      84      89      91     100
     107     105      95      98     100      94      97     101     101     101
      91      93      96     103     105      95     105     104     107      84
      84      99      89     105      81     103     130      95     108      87
      90     105      86     108      91      99      93      73      88      98
      88      98      90      88      91      92      93      87      86      85
      91      92      95      92      97      99     102     101      97      92
      82      75      75      83      75      86      89      98      92      98
     103      91      85      93     101      96     110     109      91      87
      77     103      97      83      96      85      90      95     101      76
      91      80     117      90     109      92     104      92     100      87
      99      90      82      96     100      89      85     103     100      94
      87      89      94      99     105      93      87      87      95     104
     101      82      89     100      94      88      91      92      99      91
      87     100      92      92      96      86     108     105     106      97
     100     110     102     120     111      97     104      93      91     105
     105      87      80      97     103      93      85      94      77     105
      97      95     107     100      81      78      88      98      93      90
      90      96     100      92      89      96      93      88      90      97
      94     107     103      96      90      93      94      79      97     103
      98      94      98      79     104     112      92      92     111     111
     104      99     103      93      89     106      98      80      88      88
     101      95     103     104      94     102     100     112     114      95
     100      94     106     111      88      90      90      93      98     111
     118     110     102     114     115     109     111     123     110      98
     102      96      94     112     117     118     104     108     122     111
     107      96     128     125     114     112     107      94     131     125
      96     115     105     128     128     121     124     143     117     136
     116     136     123     121     129     140     124     143     148     148
     139     146     156     153     138     134     133     142     154     164
     178     169     158     158     166     177     182     181     173     195
     215     207     187     225     214     213     214     229     218     246
     234     239     243     299     304     280     295     301     314     339
     360     350     387     368     375     394     405     421     416     440
     463     456     452     466     444     428     456     452     411     411
     406     375     372     365     357     327     297     275     264     268
     249     229     218     223     221     215     203     193     207     186
     179     188     165     152     162     151     135     143     137     144
     152     129     159     144     126     146     163     124     118     147
     130     111     123     123     136     121     109     114     122     106
     111     120     114     117     114     129     126     125     136     129
     128     124     113     121     121     118     132     135     142     147
     166     202     223     261     322     398     449     419     400     367
     354     314     271     243     250     276     269     286     282     263
     235     219     191     149     140     159     117     126     103     100
      92     100     102      98      89      95     103     104      94      98
      89      90     105     104     100      96     104      93      94     102
     103     100      99      96      89      88     103     102     100      93
      95      96      93      84      86      82      84      80      96     101
      93      80      99      86      73     103      90      83      95     115
      70      91      93     106      85      83      95      92      70      77
      95      88      98     103      88     104     106      76      78      86
      83      80      92      93      90      87      87      87      82      83
      96      94      97      95      91      85      91      81      86     101
      97      95      86      86      73      91      91      91      89      70
      92      84      83      88     101     104      83      80      75      97
      90      95      90      70      81      97      71      73      83      86
      79      88     104      99      80      88      98     100      92      76
      79      81      82      83      86      88      89      88      88      93
      83      75      77      89      72      81      91      82      96      91
      91      92      86      96      82      84      84      86      73      92
      93      87      93      97      93     110      83      88      95      74
      85      93      94     101      78      96      90      90      77      90
      93      93     100     104     106     100      92      93      96      93
      97      85      90     104     103      87      88      86      89      96
      93     100      97      93      87      93      94      88      86      96
     102      94      98      96     102      85      95     100      78     104
      94     106      83      92      94      94     110      98      91      98
     108      97     103     110     115     103     104      91     104     103
     100     102      83      90      90      92      98      99      88      96
     103      98      96     100     106     104      92      87     100     110
     109     113     113     107     107     103      92     108     109     106
     106     115     105      97     116     119     121     109     123     126
     112     119      99     129     111     138     116     121     119     131
     130     142     130     128     139     137     151     154     146     150
     177     186     186     197     200     200     217     208     218     237
     249     266     284     291     296     312     344     356     393     409
     425     455     473     495     514     514     572     604     625     612
     675     605     633     671     616     592     571     608     579     541
     505     491     464     515     428     429     416     409     377     357
     357     356     325     319     251     245     255     260     259     233
     213     207     201     184     188     195     196     176     174     171
     174     176     158     154     144     141     147     147     130     145
     154     126     146     137     120     122     115     106     130     132
     132     114     111     123      93     118     128     110     101     117
     109     110     104     109     105     114      98     110     122      97
     107      95      97      92      90     108     101      98      98     107
     102     100     106     101     107     101     109     106      88      88
      98     104      99     102      92      87     104     100     107      98
      89      99      97      96      91      98     104     110     108      80
      93      89     107      81     104     105      96     100     101      97
      94      86      84     100     100      88      99     112     100      98
      90     102      98      95      96      91      96      92     107      99
      83      95     102     107      96      94     102      97      88      89
      97     100     108     107      97      91     108     106      98     102
     101     100      94      91     103     101      97     108     100     105
      96     110     113      84      86     107     111     107     100      90
      97     100     103     110     106     100     105     109     103     118
     115     106     124     115     113     122     116     113     118     125
     139     133     107     119     149     138     121     128     136     131
     133     135     142     128     119     136     152     138     143     150
     136     156     139     143     128     139     138     126     133     142
     117     140     108     141     113     132     112     113     112     132
     136     119     115     132     107     103     102     116     112     120
     113     118     110     106     102     103     113     115     118     130
     120     116     125     130     120     108     126     129     124     127
     123     121     115     121     119     131     141     143     136     127
     134     145     126     143     130     162     142     153     157     153
     155     149     155     153     187     178     176     201     198     197
     195     209     189     187     210     217     221     232     233     233
     240     271     278     268     283     300     324     321     325     351
     365     357     362     408     399     409     416     437     440     435
     455     488     478     408     439     476     472     480     462     459
     435     400     404     419     447     383     403     362     380     331
     378     343     319     313     293     293     261     270     269     262
     254     251     220     247     227     216     202     222     221     221
     219     214     227     217     207     209     209     216     204     213
     215     218     226     232     237     237     255     241     227     250
     253     273     303     289     288     289     314     305     315     336
     355     345     349     360     431     484     476     520     546     479
     521     464     462     448     387     385     402     391     371     394
     410     353     346     375     341     328     312     273     268     251
     227     214     219     212     195     206     198     206     185     162
     166     160     171     156     137     146     150     157     149     138
     126     126     132     144     125     119     123     113     108     116
     140     109     105     126     113     101     104     124     101     105
     118     109     119     101     100     127      95      93     109     115
      97     100      97      96     103     101      90      98      88      96
      98      91      97     104      95      85      87      91      97      95
      92     100      96      76      80      85      92      95      99      86
      88      84      80      85      84      98      88      91      76