File: XRD/H-560.CSV
No.,Pos. [°2Th.],Iobs [cts],Icalc [cts],Iback [cts],CT [s],ESD,D spacings
1,20.0084,692.0004,618.9299,618.9299,300.3550, ,4.43414
6,20.0934,615.6571,614.3170,614.3170,300.3550, ,4.41558
11,20.1784,616.7025,609.7041,609.7041,300.3550, ,4.39717
16,20.2634,619.8507,605.0912,605.0912,300.3550, ,4.37891
21,20.3484,584.6589,600.4783,600.4783,300.3550, ,4.36081
26,20.4334,604.1900,595.8654,595.8654,300.3550, ,4.34286
31,20.5184,580.0731,591.4681,591.4681,300.3550, ,4.32506
36,20.6034,588.8758,587.9333,587.9333,300.3550, ,4.30741
41,20.6884,574.6595,584.3984,584.3984,300.3550, ,4.28991
46,20.7734,551.9879,580.8636,580.8636,300.3550, ,4.27254
51,20.8584,590.9880,577.3288,577.3288,300.3550, ,4.25533
56,20.9434,573.4334,573.7940,573.7940,300.3550, ,4.23825
61,21.0284,551.9223,570.1918,570.1918,300.3550, ,4.22131
66,21.1134,550.4485,566.4887,566.4887,300.3550, ,4.20450
71,21.1984,538.7072,562.7855,562.7855,300.3550, ,4.18784
76,21.2834,552.4065,559.0824,559.0824,300.3550, ,4.17130
81,21.3684,561.7399,555.3792,555.3792,300.3550, ,4.15490
86,21.4534,559.6842,551.6761,551.6761,300.3550, ,4.13863
91,21.5384,544.5872,546.7939,546.7939,300.3550, ,4.12249
96,21.6234,541.0514,541.1255,541.1255,300.3550, ,4.10648
101,21.7084,533.4208,535.4571,535.4571,300.3550, ,4.09059
106,21.7934,509.0488,529.7887,529.7887,300.3550, ,4.07483
111,21.8784,533.3796,524.1204,524.1204,300.3550, ,4.05919
116,21.9634,517.8211,518.4520,518.4520,300.3550, ,4.04367
121,22.0484,527.2242,514.9848,514.9848,300.3550, ,4.02827
126,22.1334,524.3504,512.0678,512.0678,300.3550, ,4.01299
131,22.2184,505.6631,509.1509,509.1509,300.3550, ,3.99783
136,22.3034,515.7413,506.2340,506.2340,300.3550, ,3.98279
141,22.3884,512.4171,503.3171,503.3171,300.3550, ,3.96786
146,22.4734,491.5027,500.4002,500.4002,300.3550, ,3.95304
151,22.5584,509.8222,496.2609,496.2609,300.3550, ,3.93834
156,22.6434,502.5327,492.1215,492.1215,300.3550, ,3.92375
161,22.7284,469.5725,487.9822,487.9822,300.3550, ,3.90927
166,22.8134,463.2840,483.8429,483.8429,300.3550, ,3.89489
171,22.8984,466.5724,479.7036,479.7036,300.3550, ,3.88063
176,22.9834,485.1232,475.9998,475.9998,300.3550, ,3.86647
181,23.0684,450.7450,474.0383,474.0383,300.3550, ,3.85241
186,23.1534,446.5828,472.0767,472.0767,300.3550, ,3.83846
191,23.2384,463.2412,470.1152,470.1152,300.3550, ,3.82461
196,23.3234,463.9808,468.1536,468.1536,300.3550, ,3.81087
201,23.4084,479.8396,466.1921,466.1921,300.3550, ,3.79722
206,23.4934,462.2714,463.3230,463.3230,300.3550, ,3.78367
211,23.5784,475.8949,459.0925,459.0925,300.3550, ,3.77022
216,23.6634,483.3059,454.8620,454.8620,300.3550, ,3.75687
221,23.7484,439.3900,450.6314,450.6314,300.3550, ,3.74362
226,23.8334,425.6397,446.4009,446.4009,300.3550, ,3.73046
231,23.9184,451.6358,442.1704,442.1704,300.3550, ,3.71740
236,24.0034,437.8451,439.0378,439.0378,300.3550, ,3.70442
241,24.0884,449.6139,436.6372,436.6372,300.3550, ,3.69154
246,24.1734,455.6196,434.2366,434.2366,300.3550, ,3.67876
251,24.2584,438.3939,431.8360,431.8360,300.3550, ,3.66606
256,24.3434,393.8640,429.4354,429.4354,300.3550, ,3.65345
261,24.4284,418.7899,427.0349,427.0349,300.3550, ,3.64093
266,24.5134,436.0334,422.6787,422.6787,300.3550, ,3.62850
271,24.5984,458.6765,417.8337,417.8337,300.3550, ,3.61615
276,24.6834,425.2470,412.9887,412.9887,300.3550, ,3.60389
281,24.7684,403.5413,408.1437,408.1437,300.3550, ,3.59171
286,24.8534,415.7637,403.2986,403.2986,300.3550, ,3.57962
291,24.9384,382.1487,398.4536,398.4536,300.3550, ,3.56761
296,25.0234,394.2348,397.5468,397.5468,300.3550, ,3.55569
301,25.1084,407.3072,396.6401,396.6401,300.3550, ,3.54384
306,25.1934,409.2248,395.7333,395.7333,300.3550, ,3.53208
311,25.2784,402.9111,394.8266,394.8266,300.3550, ,3.52039
316,25.3634,401.2258,393.9198,393.9198,300.3550, ,3.50879
321,25.4484,386.5551,392.4380,392.4380,300.3550, ,3.49726
326,25.5334,410.4874,388.6560,388.6560,300.3550, ,3.48581
331,25.6184,372.4551,384.8741,384.8741,300.3550, ,3.47444
336,25.7034,366.6820,381.0921,381.0921,300.3550, ,3.46314
341,25.7884,375.8674,377.3101,377.3101,300.3550, ,3.45192
346,25.8734,364.8622,373.5281,373.5281,300.3550, ,3.44077
351,25.9584,360.3100,370.9896,370.9896,300.3550, ,3.42970
356,26.0434,350.5621,370.3163,370.3163,300.3550, ,3.41869
361,26.1284,377.9792,369.6430,369.6430,300.3550, ,3.40776
366,26.2134,377.8258,368.9698,368.9698,300.3550, ,3.39691
371,26.2984,355.9474,368.2965,368.2965,300.3550, ,3.38612
376,26.3834,370.0215,367.6232,367.6232,300.3550, ,3.37540
381,26.4684,359.6700,366.3963,366.3963,300.3550, ,3.36476
386,26.5534,388.6813,364.8003,364.8003,300.3550, ,3.35418
391,26.6384,362.0214,363.2042,363.2042,300.3550, ,3.34367
396,26.7234,390.9343,361.6082,361.6082,300.3550, ,3.33323
401,26.8084,392.7995,360.0122,360.0122,300.3550, ,3.32285
406,26.8934,380.9964,358.4161,358.4161,300.3550, ,3.31254
411,26.9784,334.6905,355.2001,355.2001,300.3550, ,3.30230
416,27.0634,381.6605,351.5790,351.5790,300.3550, ,3.29212
421,27.1484,337.3826,347.9580,347.9580,300.3550, ,3.28200
426,27.2334,335.9576,344.3369,344.3369,300.3550, ,3.27195
431,27.3184,356.2848,340.7158,340.7158,300.3550, ,3.26196
436,27.4034,319.6723,337.0948,337.0948,300.3550, ,3.25204
441,27.4884,340.7985,336.2636,336.2636,300.3550, ,3.24217
446,27.5734,319.5272,335.4324,335.4324,300.3550, ,3.23237
451,27.6584,341.3806,334.6012,334.6012,300.3550, ,3.22263
456,27.7434,360.7224,333.7699,333.7699,300.3550, ,3.21295
461,27.8284,314.3215,332.9387,332.9387,300.3550, ,3.20333
466,27.9134,355.4752,331.8798,331.8798,300.3550, ,3.19377
471,27.9984,327.7773,329.9096,329.9096,300.3550, ,3.18426
476,28.0834,327.7434,327.9395,327.9395,300.3550, ,3.17482
481,28.1684,325.3283,325.9693,325.9693,300.3550, ,3.16543
486,28.2534,333.8147,323.9992,323.9992,300.3550, ,3.15610
491,28.3384,322.5044,322.0291,322.0291,300.3550, ,3.14683
496,28.4234,323.5346,320.3312,320.3312,300.3550, ,3.13761
501,28.5084,329.3806,319.0417,319.0417,300.3550, ,3.12845
506,28.5934,329.8827,317.7522,317.7522,300.3550, ,3.11934
511,28.6784,313.0040,316.4627,316.4627,300.3550, ,3.11029
516,28.7634,315.8145,315.1732,315.1732,300.3550, ,3.10129
521,28.8484,269.2507,313.8837,313.8837,300.3550, ,3.09235
526,28.9334,317.5777,313.2265,313.2265,300.3550, ,3.08345
531,29.0184,335.4481,312.9907,312.9907,300.3550, ,3.07462
536,29.1034,309.5217,312.7550,312.7550,300.3550, ,3.06583
541,29.1884,298.1389,312.5192,312.5192,300.3550, ,3.05709
546,29.2734,322.2546,312.2835,312.2835,300.3550, ,3.04841
551,29.3584,320.5818,312.0477,312.0477,300.3550, ,3.03978
556,29.4434,328.8557,308.8097,308.8097,300.3550, ,3.03119
561,29.5284,310.2545,304.8211,304.8211,300.3550, ,3.02266
566,29.6134,320.4944,300.8325,300.8325,300.3550, ,3.01418
571,29.6984,287.4191,296.8439,296.8439,300.3550, ,3.00575
576,29.7834,275.9848,292.8553,292.8553,300.3550, ,2.99736
581,29.8684,304.4583,288.8667,288.8667,300.3550, ,2.98902
586,29.9534,295.2569,288.0036,288.0036,300.3550, ,2.98074
591,30.0384,304.1072,287.1406,287.1406,300.3550, ,2.97249
596,30.1234,305.4656,286.2775,286.2775,300.3550, ,2.96430
601,30.2084,293.2490,285.4145,285.4145,300.3550, ,2.95615
606,30.2934,305.0423,284.5514,284.5514,300.3550, ,2.94805
611,30.3784,269.7566,283.5730,283.5730,300.3550, ,2.94000
616,30.4634,290.6037,282.1330,282.1330,300.3550, ,2.93199
621,30.5484,270.5016,280.6930,280.6930,300.3550, ,2.92402
626,30.6334,285.8154,279.2530,279.2530,300.3550, ,2.91610
631,30.7184,253.9348,277.8130,277.8130,300.3550, ,2.90822
636,30.8034,286.0802,276.3729,276.3729,300.3550, ,2.90039
641,30.8884,280.9012,275.2392,275.2392,300.3550, ,2.89261
646,30.9734,280.8235,274.5649,274.5649,300.3550, ,2.88486
651,31.0584,286.3759,273.8905,273.8905,300.3550, ,2.87716
656,31.1434,275.8280,273.2162,273.2162,300.3550, ,2.86950
661,31.2284,285.7585,272.5419,272.5419,300.3550, ,2.86188
666,31.3134,271.4725,271.8676,271.8676,300.3550, ,2.85431
671,31.3984,270.5933,270.9939,270.9939,300.3550, ,2.84677
676,31.4834,286.1063,269.9875,269.9875,300.3550, ,2.83928
681,31.5684,261.0104,268.9811,268.9811,300.3550, ,2.83183
686,31.6534,274.9516,267.9746,267.9746,300.3550, ,2.82442
691,31.7384,289.0955,266.9682,266.9682,300.3550, ,2.81705
696,31.8234,275.9684,265.9617,265.9617,300.3550, ,2.80972
701,31.9084,244.4959,265.3207,265.3207,300.3550, ,2.80243
706,31.9934,254.5574,264.7709,264.7709,300.3550, ,2.79518
711,32.0784,252.0004,264.2212,264.2212,300.3550, ,2.78796
716,32.1634,272.5199,263.6714,263.6714,300.3550, ,2.78079
721,32.2484,261.5789,263.1217,263.1217,300.3550, ,2.77365
726,32.3334,264.4669,262.5668,262.5719,300.3550, ,2.76656
731,32.4184,273.0487,264.1701,262.3576,300.3550, ,2.75949
736,32.5034,249.8979,261.7982,259.8766,300.3550, ,2.75247
741,32.5884,252.9861,259.6308,257.5898,300.3550, ,2.74549
746,32.6734,246.3712,257.6609,255.4892,300.3550, ,2.73854
751,32.7584,259.5472,255.8823,253.5668,300.3550, ,2.73163
756,32.8434,239.0314,254.2890,251.8150,300.3550, ,2.72475
761,32.9284,252.3314,252.8757,250.2264,300.3550, ,2.71791
766,33.0134,229.6836,251.6374,248.7935,300.3550, ,2.71111
771,33.0984,260.9692,250.5698,247.5091,300.3550, ,2.70434
776,33.1834,259.4010,249.6692,246.3660,300.3550, ,2.69761
781,33.2684,240.1274,248.9331,245.3573,300.3550, ,2.69091
786,33.3534,260.5421,248.3596,244.4761,300.3550, ,2.68424
791,33.4384,268.8807,247.9483,243.7157,300.3550, ,2.67761
796,33.5234,251.8940,247.7005,243.0696,300.3550, ,2.67102
801,33.6084,281.2940,247.6193,242.5313,300.3550, ,2.66446
806,33.6934,262.4619,247.7106,242.0945,300.3550, ,2.65793
811,33.7784,279.8254,247.9837,241.7530,300.3550, ,2.65144
816,33.8634,252.1820,248.4524,241.5008,300.3550, ,2.64497
821,33.9484,242.3280,249.1368,241.3318,300.3550, ,2.63855
826,34.0334,248.1793,250.0653,241.2404,300.3550, ,2.63215
831,34.1184,253.6063,251.2784,241.2207,300.3550, ,2.62579
836,34.2034,259.7887,252.8339,241.2672,300.3550, ,2.61946
841,34.2884,245.0662,254.8149,241.3745,300.3550, ,2.61316
846,34.3734,254.5930,257.3427,241.5372,300.3550, ,2.60689
851,34.4584,268.9516,260.5985,241.7501,300.3550, ,2.60065
856,34.5434,241.4509,264.8602,242.0080,300.3550, ,2.59445
861,34.6284,268.3072,270.5680,242.3059,300.3550, ,2.58827
866,34.7134,238.9581,278.4467,242.6391,300.3550, ,2.58213
871,34.7984,280.0161,289.7550,243.0025,300.3550, ,2.57602
876,34.8834,304.7536,306.8407,243.3917,300.3550, ,2.56993
881,34.9684,307.8272,334.5295,243.8020,300.3550, ,2.56388
886,35.0534,392.6213,383.4180,244.2290,300.3550, ,2.55786
891,35.1384,474.4514,475.5501,244.6682,300.3550, ,2.55187
896,35.2234,641.0388,642.9714,245.1155,300.3550, ,2.54590
901,35.3084,863.8832,847.3555,245.5667,300.3550, ,2.53997
906,35.3934,845.4321,867.4824,246.0177,300.3550, ,2.53406
911,35.4784,703.1970,693.5081,246.4645,300.3550, ,2.52819
916,35.5634,504.2636,512.9088,246.9034,300.3550, ,2.52234
921,35.6484,390.1962,405.4183,247.3305,300.3550, ,2.51652
926,35.7334,388.5927,348.6053,247.7421,300.3550, ,2.51073
931,35.8184,363.9789,317.4253,248.1347,300.3550, ,2.50496
936,35.9034,292.3657,298.9089,248.5049,300.3550, ,2.49923
941,35.9884,319.2597,287.0892,248.8492,300.3550, ,2.49352
946,36.0734,285.6687,279.1243,249.1643,300.3550, ,2.48784
951,36.1584,259.5370,273.5295,249.4471,300.3550, ,2.48219
956,36.2434,281.9835,269.4613,249.6943,300.3550, ,2.47656
961,36.3284,252.3321,266.4118,249.9030,300.3550, ,2.47096
966,36.4134,286.8799,264.0608,250.0703,300.3550, ,2.46539
971,36.4984,256.6556,262.1982,250.1932,300.3550, ,2.45984
976,36.5834,254.5282,260.6815,250.2691,300.3550, ,2.45432
981,36.6684,274.7267,259.4111,250.2951,300.3550, ,2.44882
986,36.7534,261.8571,258.3154,250.2688,300.3550, ,2.44336
991,36.8384,246.4623,257.3421,250.1875,300.3550, ,2.43791
996,36.9234,251.0466,256.4516,250.0489,300.3550, ,2.43250
1001,37.0084,258.3767,255.6137,249.8506,300.3550, ,2.42710
1006,37.0934,244.0821,253.9861,251.7750,300.3550, ,2.42174
1011,37.1784,246.8468,252.4055,250.3996,300.3550, ,2.41639
1016,37.2634,248.6754,250.9192,249.0241,300.3550, ,2.41108
1021,37.3484,233.2760,258.1135,242.0709,300.3550, ,2.40579
1026,37.4334,258.9199,254.6147,235.8374,300.3550, ,2.40052
1031,37.5184,261.5576,264.6939,243.6867,300.3550, ,2.39527
1036,37.6034,279.9299,260.5546,235.2341,300.3550, ,2.39006
1041,37.6884,278.9228,263.7075,232.5964,300.3550, ,2.38486
1046,37.7734,313.2201,273.7623,234.6239,300.3550, ,2.37969
1051,37.8584,295.9937,290.9858,240.2682,300.3550, ,2.37454
1056,37.9434,323.6368,316.8724,248.5815,300.3550, ,2.36942
1061,38.0284,357.3516,355.5211,258.7152,300.3550, ,2.36432
1066,38.1134,399.6017,396.9024,251.4298,300.3550, ,2.35924
1071,38.1984,471.6890,498.6997,248.1463,300.3550, ,2.35418
1076,38.2834,773.6268,832.8351,261.0119,300.3550, ,2.34915
1081,38.3684,2114.45,2172.12,-9.1110,300.3550, ,2.34414
1086,38.4534,2735.62,2826.09,676.5840,300.3550, ,2.33916
1091,38.5384,2390.51,2407.98,1176.13,300.3550, ,2.33419
1096,38.6234,1307.94,1349.55,825.5846,300.3550, ,2.32925
1101,38.7084,755.0433,687.5164,449.4873,300.3550, ,2.32433
1106,38.7934,541.3275,559.7345,384.8804,300.3550, ,2.31943
1111,38.8784,449.5384,476.4836,366.5426,300.3550, ,2.31456
1116,38.9634,393.6095,422.3360,343.8233,300.3550, ,2.30970
1121,39.0484,400.3644,401.4198,344.3011,300.3550, ,2.30487
1126,39.1334,401.8246,387.5315,344.1221,300.3550, ,2.30006
1131,39.2184,394.3110,377.8202,343.7184,300.3550, ,2.29527
1136,39.3034,389.5560,371.1022,343.6063,300.3550, ,2.29050
1141,39.3884,370.3725,367.0241,344.3853,300.3550, ,2.28576
1146,39.4734,344.5683,365.7008,346.7372,300.3550, ,2.28103
1151,39.5584,356.4076,373.1619,260.4870,300.3550, ,2.27632
1156,39.6434,382.9346,374.1497,236.0370,300.3550, ,2.27164
1161,39.7284,404.0894,388.7675,215.6960,300.3550, ,2.26697
1166,39.8134,399.0366,421.8610,199.0230,300.3550, ,2.26233
1171,39.8984,513.5010,482.4525,185.6006,300.3550, ,2.25771
1176,39.9834,639.7004,588.2098,175.0370,300.3550, ,2.25310
1181,40.0684,807.0060,775.4401,166.9623,300.3550, ,2.24852
1186,40.1534,1150.79,1117.88,161.0309,300.3550, ,2.24395
1191,40.2384,1768.1,1737.79,156.9202,300.3550, ,2.23941
1196,40.3234,2525.83,2627.35,154.3306,300.3550, ,2.23489
1201,40.4084,2978.65,3070.3,152.9855,300.3550, ,2.23038
1206,40.4934,2728.96,2599.61,152.6304,300.3550, ,2.22589
1211,40.5784,1793.12,1770.54,153.0333,300.3550, ,2.22143
1216,40.6634,1003.01,1141.25,153.9842,300.3550, ,2.21698
1221,40.7484,767.4168,780.9356,155.2947,300.3550, ,2.21255
1226,40.8334,555.3191,579.4777,156.7982,300.3550, ,2.20814
1231,40.9184,443.7131,460.7687,158.3493,300.3550, ,2.20375
1236,41.0034,373.3373,386.1587,159.8239,300.3550, ,2.19938
1241,41.0884,332.0733,336.5221,161.1185,300.3550, ,2.19502
1246,41.1734,299.4946,301.8932,162.1505,300.3550, ,2.19069
1251,41.2584,246.4496,276.7150,162.8578,300.3550, ,2.18637
1256,41.3434,275.2790,257.6995,163.1985,300.3550, ,2.18207
1261,41.4284,230.7505,242.8149,163.1508,300.3550, ,2.17779
1266,41.5134,223.5627,230.7613,162.7126,300.3550, ,2.17353
1271,41.5984,198.0068,220.6911,161.9016,300.3550, ,2.16928
1276,41.6834,230.4587,212.0468,160.7548,300.3550, ,2.16506
1281,41.7684,219.3729,204.4667,159.3288,300.3550, ,2.16085
1286,41.8534,191.9806,197.7241,157.6988,300.3550, ,2.15666
1291,41.9384,186.1757,191.6915,155.9592,300.3550, ,2.15248
1296,42.0234,200.1167,186.3158,154.2227,300.3550, ,2.14832
1301,42.1084,180.2036,181.6027,152.6210,300.3550, ,2.14418
1306,42.1934,177.5273,177.6046,151.3037,300.3550, ,2.14006
1311,42.2784,189.2570,174.4135,150.4386,300.3550, ,2.13595
1316,42.3634,173.1911,172.1554,150.2115,300.3550, ,2.13186
1321,42.4484,188.1179,170.9859,150.8259,300.3550, ,2.12779
1326,42.5334,169.5304,171.0877,152.5029,300.3550, ,2.12374
1331,42.6184,186.6384,172.6680,155.4808,300.3550, ,2.11970
1336,42.7034,154.0241,175.9567,160.0155,300.3550, ,2.11567
1341,42.7884,171.0791,181.2057,166.3800,300.3550, ,2.11167
1346,42.8734,175.6390,170.2443,170.2443,300.3550, ,2.10768
1351,42.9584,186.9199,169.5076,169.5076,300.3550, ,2.10370
1356,43.0434,175.9344,168.7709,168.7709,300.3550, ,2.09975
1361,43.1284,174.9013,168.0342,168.0342,300.3550, ,2.09581
1366,43.2134,180.0388,167.0628,167.0628,300.3550, ,2.09188
1371,43.2984,161.4447,165.7396,165.7396,300.3550, ,2.08797
1376,43.3834,162.5590,164.4164,164.4164,300.3550, ,2.08408
1381,43.4684,172.0886,163.0931,163.0931,300.3550, ,2.08020
1386,43.5534,165.6383,161.7699,161.7699,300.3550, ,2.07633
1391,43.6384,151.9278,160.4467,160.4467,300.3550, ,2.07249
1396,43.7234,151.1963,159.3784,159.3784,300.3550, ,2.06865
1401,43.8084,151.6529,158.4802,158.4802,300.3550, ,2.06484
1406,43.8934,137.2923,155.1735,152.5739,300.3550, ,2.06104
1411,43.9784,161.5214,154.2552,150.9807,300.3550, ,2.05725
1416,44.0634,175.5736,153.7924,149.5403,300.3550, ,2.05348
1421,44.1484,153.7585,153.9875,148.2421,300.3550, ,2.04972
1426,44.2334,161.8881,155.2707,147.0756,300.3550, ,2.04598
1431,44.3184,154.8706,158.6699,146.0307,300.3550, ,2.04225
1436,44.4034,186.7590,167.1269,145.0972,300.3550, ,2.03854
1441,44.4884,210.7024,192.0844,146.0033,300.3550, ,2.03484
1446,44.5734,308.2396,308.7394,184.5017,300.3550, ,2.03116
1451,44.6584,531.6107,546.2094,159.3876,300.3550, ,2.02749
1456,44.7434,397.8757,385.2534,151.1510,300.3550, ,2.02384
1461,44.8284,232.0858,236.4065,151.1860,300.3550, ,2.02020
1466,44.9134,174.5093,175.2595,142.6227,300.3550, ,2.01657
1471,44.9984,148.5646,156.9944,140.5726,300.3550, ,2.01296
1476,45.0834,161.6875,150.7648,140.4983,300.3550, ,2.00936
1481,45.1684,133.7316,147.0466,140.1466,300.3550, ,2.00578
1486,45.2534,148.5090,144.7784,139.8160,300.3550, ,2.00221
1491,45.3384,143.8117,143.2416,139.4985,300.3550, ,1.99865
1496,45.4234,140.9325,142.1114,139.1861,300.3550, ,1.99511
1501,45.5084,154.1000,141.2208,138.8712,300.3550, ,1.99158
1506,45.5934,136.0434,140.4751,138.5461,300.3550, ,1.98806
1511,45.6784,142.3488,139.8157,138.2035,300.3550, ,1.98456
1516,45.7634,154.1301,138.3610,137.8362,300.3550, ,1.98107
1521,45.8484,147.6673,137.4371,137.4371,300.3550, ,1.97760
1526,45.9334,152.0369,136.9992,136.9992,300.3550, ,1.97414
1531,46.0184,126.5582,136.5160,136.5160,300.3550, ,1.97069
1536,46.1034,126.9085,135.9807,135.9807,300.3550, ,1.96725
1541,46.1884,139.4596,135.3869,135.3869,300.3550, ,1.96383
1546,46.2734,123.6130,134.7283,134.7283,300.3550, ,1.96042
1551,46.3584,138.3807,133.9990,133.9990,300.3550, ,1.95702
1556,46.4434,142.7234,133.1928,133.1928,300.3550, ,1.95364
1561,46.5284,127.5090,132.3039,132.3039,300.3550, ,1.95027
1566,46.6134,127.6548,131.3267,131.3267,300.3550, ,1.94691
1571,46.6984,129.7482,130.2557,130.2557,300.3550, ,1.94356
1576,46.7834,134.6865,129.0854,129.0854,300.3550, ,1.94023
1581,46.8684,118.8751,127.8108,127.8108,300.3550, ,1.93691
1586,46.9534,130.0972,131.7894,131.7894,300.3550, ,1.93360
1591,47.0384,136.0512,131.2424,131.2424,300.3550, ,1.93030
1596,47.1234,127.9723,130.7121,130.6954,300.3550, ,1.92702
1601,47.2084,131.6370,130.5112,130.5112,300.3550, ,1.92375
1606,47.2934,128.8791,130.3270,130.3270,300.3550, ,1.92049
1611,47.3784,130.2766,130.1427,130.1427,300.3550, ,1.91724
1616,47.4634,134.6411,129.9585,129.9585,300.3550, ,1.91401
1621,47.5484,139.9923,129.7743,129.7743,300.3550, ,1.91078
1626,47.6334,131.9814,129.4012,129.4012,300.3550, ,1.90757
1631,47.7184,114.4184,128.2724,128.2724,300.3550, ,1.90437
1636,47.8034,139.2372,127.1436,127.1436,300.3550, ,1.90118
1641,47.8884,136.0163,126.0148,126.0148,300.3550, ,1.89801
1646,47.9734,128.9445,124.8861,124.8861,300.3550, ,1.89484
1651,48.0584,120.5494,123.7573,123.7573,300.3550, ,1.89169
1656,48.1434,113.4029,122.7368,122.7368,300.3550, ,1.88855
1661,48.2284,122.5458,121.8787,121.8787,300.3550, ,1.88542
1666,48.3134,129.4074,121.0207,121.0207,300.3550, ,1.88230
1671,48.3984,119.9194,120.1626,120.1626,300.3550, ,1.87919
1676,48.4834,93.7152,119.3046,119.3046,300.3550, ,1.87609
1681,48.5684,135.2789,118.4465,118.4465,300.3550, ,1.87301
1686,48.6534,122.4444,118.0619,118.0619,300.3550, ,1.86994
1691,48.7384,126.2010,117.9930,117.9930,300.3550, ,1.86687
1696,48.8234,114.0203,117.9240,117.9240,300.3550, ,1.86382
1701,48.9084,117.5812,117.8550,117.8550,300.3550, ,1.86078
1706,48.9934,119.2008,117.7860,117.7860,300.3550, ,1.85775
1711,49.0784,118.4646,117.7171,117.7171,300.3550, ,1.85473
1716,49.1634,127.0998,117.4319,117.4319,300.3550, ,1.85172
1721,49.2484,111.4094,120.0737,120.0737,300.3550, ,1.84873
1726,49.3334,115.3456,119.1158,119.1158,300.3550, ,1.84574
1731,49.4184,114.1999,118.2026,118.2026,300.3550, ,1.84277
1736,49.5034,110.1105,117.3327,117.3327,300.3550, ,1.83980
1741,49.5884,112.6509,116.5046,116.5046,300.3550, ,1.83685
1746,49.6734,122.9102,115.7169,115.7169,300.3550, ,1.83390
1751,49.7584,110.4278,114.9682,114.9682,300.3550, ,1.83097
1756,49.8434,116.5377,115.5533,114.2569,300.3550, ,1.82804
1761,49.9284,119.6276,114.9440,113.5819,300.3550, ,1.82513
1766,50.0134,107.1385,114.3747,112.9418,300.3550, ,1.82223
1771,50.0984,105.7161,113.8447,112.3351,300.3550, ,1.81933
1776,50.1834,106.9804,113.3532,111.7608,300.3550, ,1.81645
1781,50.2684,116.7145,112.8998,111.2175,300.3550, ,1.81358
1786,50.3534,106.6321,112.4840,110.7041,300.3550, ,1.81072
1791,50.4384,127.7788,112.1056,110.2192,300.3550, ,1.80787
1796,50.5234,108.7678,111.7645,109.7618,300.3550, ,1.80502
1801,50.6084,113.1931,111.4608,109.3308,300.3550, ,1.80219
1806,50.6934,112.1846,111.1948,108.9250,300.3550, ,1.79937
1811,50.7784,122.8388,110.9672,108.5433,300.3550, ,1.79656
1816,50.8634,106.8904,110.7790,108.1847,300.3550, ,1.79375
1821,50.9484,119.1325,110.6313,107.8480,300.3550, ,1.79096
1826,51.0334,113.7782,110.5260,107.5325,300.3550, ,1.78818
1831,51.1184,111.9848,110.4656,107.2370,300.3550, ,1.78540
1836,51.2034,124.7430,110.4530,106.9606,300.3550, ,1.78264
1841,51.2884,113.8302,110.4923,106.7023,300.3550, ,1.77988
1846,51.3734,98.8006,110.5884,106.4614,300.3550, ,1.77714
1851,51.4584,124.1389,110.7479,106.2368,300.3550, ,1.77440
1856,51.5434,119.8433,110.9790,106.0277,300.3550, ,1.77167
1861,51.6284,111.9938,111.2924,105.8333,300.3550, ,1.76896
1866,51.7134,107.1077,111.7017,105.6528,300.3550, ,1.76625
1871,51.7984,103.3941,112.2249,105.4854,300.3550, ,1.76355
1876,51.8834,113.9975,112.8854,105.3304,300.3550, ,1.76086
1881,51.9684,116.8135,113.7145,105.1869,300.3550, ,1.75818
1886,52.0534,115.6770,114.7541,105.0544,300.3550, ,1.75551
1891,52.1384,128.8132,116.0619,104.9320,300.3550, ,1.75285
1896,52.2234,122.6625,117.7185,104.8192,300.3550, ,1.75019
1901,52.3084,137.1253,119.8387,104.7153,300.3550, ,1.74755
1906,52.3934,124.4443,122.5903,104.6197,300.3550, ,1.74491
1911,52.4784,123.9935,126.2263,104.5317,300.3550, ,1.74229
1916,52.5634,108.1464,131.1402,104.4508,300.3550, ,1.73967
1921,52.6484,142.5687,137.9690,104.3765,300.3550, ,1.73706
1926,52.7334,132.4034,147.7895,104.3082,300.3550, ,1.73446
1931,52.8184,147.4125,162.5180,104.2453,300.3550, ,1.73187
1936,52.9034,164.4588,185.7455,104.1875,300.3550, ,1.72929
1941,52.9884,217.0398,224.4711,104.1342,300.3550, ,1.72671
1946,53.0734,318.5622,291.8933,104.0851,300.3550, ,1.72415
1951,53.1584,388.8185,404.1352,104.0395,300.3550, ,1.72159
1956,53.2434,538.4137,530.4892,103.9973,300.3550, ,1.71904
1961,53.3284,539.9497,554.1001,103.9579,300.3550, ,1.71650
1966,53.4134,464.6658,481.9917,103.9210,300.3550, ,1.71397
1971,53.4984,345.5347,369.3695,103.8864,300.3550, ,1.71145
1976,53.5834,285.9446,272.9651,103.8535,300.3550, ,1.70894
1981,53.6684,223.2979,213.6218,103.8222,300.3550, ,1.70643
1986,53.7534,195.6600,179.0046,103.7922,300.3550, ,1.70393
1991,53.8384,166.4879,157.9857,103.7631,300.3550, ,1.70144
1996,53.9234,169.9245,144.5000,103.7348,300.3550, ,1.69896
2001,54.0084,151.2156,135.4010,103.7071,300.3550, ,1.69649
2006,54.0934,146.5972,128.9951,103.6797,300.3550, ,1.69402
2011,54.1784,120.1970,124.3233,103.6524,300.3550, ,1.69156
2016,54.2634,130.5900,120.8140,103.6250,300.3550, ,1.68912
2021,54.3484,112.1756,118.1112,103.5975,300.3550, ,1.68667
2026,54.4334,112.9297,115.9846,103.5697,300.3550, ,1.68424
2031,54.5184,121.1406,114.2805,103.5415,300.3550, ,1.68182
2036,54.6034,110.7938,112.8926,103.5128,300.3550, ,1.67940
2041,54.6884,108.1670,111.7461,103.4834,300.3550, ,1.67699
2046,54.7734,105.6556,110.7867,103.4535,300.3550, ,1.67459
2051,54.8584,99.2448,109.9748,103.4228,300.3550, ,1.67219
2056,54.9434,106.9605,109.2805,103.3915,300.3550, ,1.66981
2061,55.0284,99.8282,108.6810,103.3594,300.3550, ,1.66743
2066,55.1134,97.9249,108.1590,103.3267,300.3550, ,1.66506
2071,55.1984,107.2868,107.7006,103.2933,300.3550, ,1.66270
2076,55.2834,102.6137,107.2953,103.2593,300.3550, ,1.66034
2081,55.3684,104.6196,106.9345,103.2247,300.3550, ,1.65799
2086,55.4534,96.5181,106.6111,103.1897,300.3550, ,1.65565
2091,55.5384,94.8759,106.3197,103.1543,300.3550, ,1.65332
2096,55.6234,103.1645,106.0557,103.1187,300.3550, ,1.65099
2101,55.7084,105.9570,105.8155,103.0830,300.3550, ,1.64868
2106,55.7934,100.2743,105.5959,103.0473,300.3550, ,1.64637
2111,55.8784,112.4363,105.3945,103.0118,300.3550, ,1.64406
2116,55.9634,98.9206,105.2091,102.9767,300.3550, ,1.64177
2121,56.0484,101.9032,105.0381,102.9422,300.3550, ,1.63948
2126,56.1334,103.1343,104.8801,102.9085,300.3550, ,1.63720
2131,56.2184,97.3511,104.7338,102.8759,300.3550, ,1.63492
2136,56.3034,107.1170,104.5983,102.8445,300.3550, ,1.63266
2141,56.3884,104.9922,104.4729,102.8147,300.3550, ,1.63040
2146,56.4734,105.2968,104.3570,102.7867,300.3550, ,1.62814
2151,56.5584,115.8187,104.2499,102.7608,300.3550, ,1.62590
2156,56.6434,119.1986,104.1514,102.7373,300.3550, ,1.62366
2161,56.7284,104.3378,104.0612,102.7166,300.3550, ,1.62143
2166,56.8134,110.0246,103.1493,102.6989,300.3550, ,1.61920
2171,56.8984,110.2046,102.6847,102.6847,300.3550, ,1.61699
2176,56.9834,113.6243,102.6743,102.6743,300.3550, ,1.61478
2181,57.0684,111.6635,102.6681,102.6681,300.3550, ,1.61257
2186,57.1534,111.5539,102.6665,102.6665,300.3550, ,1.61038
2191,57.2384,101.9373,102.6699,102.6699,300.3550, ,1.60819
2196,57.3234,115.2380,102.6787,102.6787,300.3550, ,1.60601
2201,57.4084,121.0680,102.6934,102.6934,300.3550, ,1.60383
2206,57.4934,103.0456,102.7144,102.7144,300.3550, ,1.60166
2211,57.5784,101.6898,102.7421,102.7421,300.3550, ,1.59950
2216,57.6634,88.1363,102.7772,102.7772,300.3550, ,1.59734
2221,57.7484,89.2016,102.8200,102.8200,300.3550, ,1.59519
2226,57.8334,85.6838,102.8712,102.8712,300.3550, ,1.59305
2231,57.9184,107.0185,97.3027,97.3027,300.3550, ,1.59091
2236,58.0034,93.5327,96.5356,96.5356,300.3550, ,1.58879
2241,58.0884,90.7647,96.1072,96.1072,300.3550, ,1.58666
2246,58.1734,94.7477,95.6789,95.6789,300.3550, ,1.58455
2251,58.2584,84.3877,95.2505,95.2505,300.3550, ,1.58244
2256,58.3434,103.0414,94.8221,94.8221,300.3550, ,1.58033
2261,58.4284,89.8008,94.3937,94.3937,300.3550, ,1.57824
2266,58.5134,98.7271,94.1429,94.1429,300.3550, ,1.57615
2271,58.5984,88.3193,94.0106,94.0106,300.3550, ,1.57406
2276,58.6834,91.8349,93.8782,93.8782,300.3550, ,1.57199
2281,58.7684,91.0299,93.7459,93.7459,300.3550, ,1.56991
2286,58.8534,98.5978,93.6135,93.6135,300.3550, ,1.56785
2291,58.9384,82.4699,93.4811,93.4811,300.3550, ,1.56579
2296,59.0234,86.2744,93.4547,93.4547,300.3550, ,1.56374
2301,59.1084,102.7330,93.4547,93.4547,300.3550, ,1.56169
2306,59.1934,96.2199,93.4547,93.4547,300.3550, ,1.55965
2311,59.2784,76.9713,93.4547,93.4547,300.3550, ,1.55762
2316,59.3634,85.0211,93.4547,93.4547,300.3550, ,1.55559
2321,59.4484,90.5649,93.4573,93.4547,300.3550, ,1.55357
2326,59.5334,92.2338,93.4836,93.4836,300.3550, ,1.55155
2331,59.6184,99.1968,93.5126,93.5126,300.3550, ,1.54955
2336,59.7034,89.4456,93.5416,93.5416,300.3550, ,1.54754
2341,59.7884,87.1484,93.5705,93.5705,300.3550, ,1.54554
2346,59.8734,92.7055,93.5995,93.5995,300.3550, ,1.54355
2351,59.9584,101.3799,94.2785,93.6227,300.3550, ,1.54157
2356,60.0434,88.2401,94.3097,93.6227,300.3550, ,1.53959
2361,60.1284,87.0151,94.3433,93.6227,300.3550, ,1.53762
2366,60.2134,85.8154,94.3794,93.6227,300.3550, ,1.53565
2371,60.2984,99.7867,94.4183,93.6227,300.3550, ,1.53369
2376,60.3834,97.2688,94.4602,93.6227,300.3550, ,1.53173
2381,60.4684,104.8434,94.8226,93.9397,300.3550, ,1.52978
2386,60.5534,93.4726,95.6643,94.7323,300.3550, ,1.52784
2391,60.6384,97.4722,96.5102,95.5249,300.3550, ,1.52590
2396,60.7234,77.5153,97.3608,96.3174,300.3550, ,1.52397
2401,60.8084,90.4613,98.2168,97.1100,300.3550, ,1.52204
2406,60.8934,96.3328,99.0786,97.9026,300.3550, ,1.52012
2411,60.9784,93.6033,95.2807,91.7516,300.3550, ,1.51820
2416,61.0634,92.7989,94.9462,91.1737,300.3550, ,1.51629
2421,61.1484,98.1235,94.9212,90.8793,300.3550, ,1.51439
2426,61.2334,111.5866,95.1858,90.8446,300.3550, ,1.51249
2431,61.3184,104.1263,95.7212,91.0463,300.3550, ,1.51060
2436,61.4034,106.4971,96.5098,91.4613,300.3550, ,1.50871
2441,61.4884,101.4210,97.5356,92.0672,300.3550, ,1.50683
2446,61.5734,101.5323,98.7847,92.8418,300.3550, ,1.50495
2451,61.6584,100.3853,100.2449,93.7633,300.3550, ,1.50308
2456,61.7434,90.3286,101.9071,94.8105,300.3550, ,1.50122
2461,61.8284,117.9817,103.7653,95.9624,300.3550, ,1.49936
2466,61.9134,108.7619,105.8181,97.1986,300.3550, ,1.49750
2471,61.9984,101.7477,108.0692,98.4988,300.3550, ,1.49565
2476,62.0834,117.5445,110.5298,99.8434,300.3550, ,1.49381
2481,62.1684,107.1455,113.2208,101.2131,300.3550, ,1.49197
2486,62.2534,112.0589,116.1764,102.5889,300.3550, ,1.49014
2491,62.3384,96.4228,119.4488,103.9522,300.3550, ,1.48831
2496,62.4234,120.9933,123.1168,105.2850,300.3550, ,1.48649
2501,62.5084,116.4276,127.2971,106.5693,300.3550, ,1.48467
2506,62.5934,140.4580,132.1629,107.7879,300.3550, ,1.48286
2511,62.6784,139.0926,137.9727,108.9237,300.3550, ,1.48105
2516,62.7634,134.3830,145.1194,109.9599,300.3550, ,1.47925
2521,62.8484,178.3870,154.2096,110.8805,300.3550, ,1.47745
2526,62.9334,177.2505,166.1992,111.6694,300.3550, ,1.47566
2531,63.0184,215.2490,182.6152,112.3110,300.3550, ,1.47388
2536,63.1034,212.5794,205.8995,112.7903,300.3550, ,1.47209
2541,63.1884,234.2238,239.7597,113.0924,300.3550, ,1.47032
2546,63.2734,279.6935,288.7024,113.2028,300.3550, ,1.46855
2551,63.3584,360.1699,353.4742,113.1075,300.3550, ,1.46678
2556,63.4434,394.2763,418.0866,112.7926,300.3550, ,1.46502
2561,63.5284,462.9264,447.6954,112.2449,300.3550, ,1.46327
2566,63.6134,428.4907,429.6792,111.4512,300.3550, ,1.46152
2571,63.6984,406.1542,380.3804,110.3988,300.3550, ,1.45977
2576,63.7834,326.6548,317.5920,109.0755,300.3550, ,1.45803
2581,63.8684,248.6528,260.2693,107.4692,300.3550, ,1.45629
2586,63.9534,214.7120,216.9528,105.5682,300.3550, ,1.45456
2591,64.0384,179.0267,186.1400,103.3613,300.3550, ,1.45284
2596,64.1234,151.4974,163.9967,100.8373,300.3550, ,1.45112
2601,64.2084,152.3329,147.4350,97.9855,300.3550, ,1.44940
2606,64.2934,146.1739,134.4151,94.7959,300.3550, ,1.44769
2611,64.3784,129.8471,123.6405,91.2584,300.3550, ,1.44598
2616,64.4634,121.3074,114.2867,87.3632,300.3550, ,1.44428
2621,64.5484,111.2462,105.8173,83.1011,300.3550, ,1.44258
2626,64.6334,128.7321,120.9316,115.3873,300.3550, ,1.44089
2631,64.7184,128.1641,120.6766,111.8603,300.3550, ,1.43921
2636,64.8034,117.9738,125.3255,108.6944,300.3550, ,1.43752
2641,64.8884,165.6446,168.4633,105.8677,300.3550, ,1.43585
2646,64.9734,398.0148,379.0380,103.3588,300.3550, ,1.43417
2651,65.0584,353.9187,343.6592,101.1458,300.3550, ,1.43250
2656,65.1434,275.5911,258.3827,99.2068,300.3550, ,1.43084
2661,65.2284,235.2083,237.1868,97.5201,300.3550, ,1.42918
2666,65.3134,159.0037,129.2414,96.0638,300.3550, ,1.42753
2671,65.3984,92.1977,105.8487,94.8161,300.3550, ,1.42588
2676,65.4834,94.9751,100.1467,93.7552,300.3550, ,1.42423
2681,65.5684,88.9759,97.0973,92.8591,300.3550, ,1.42259
2686,65.6534,95.5630,95.1336,92.1061,300.3550, ,1.42095
2691,65.7384,102.9708,93.7499,91.4744,300.3550, ,1.41932
2696,65.8234,88.1014,92.7169,90.9418,300.3550, ,1.41770
2701,65.9084,94.7678,91.9111,90.4867,300.3550, ,1.41607
2706,65.9934,82.1259,91.2559,90.0870,300.3550, ,1.41446
2711,66.0784,92.7924,90.6977,89.7208,300.3550, ,1.41284
2716,66.1634,102.9134,90.1950,89.3662,300.3550, ,1.41123
2721,66.2484,70.2363,89.7133,89.0012,300.3550, ,1.40963
2726,66.3334,83.0764,89.2224,88.6038,300.3550, ,1.40803
2731,66.4184,95.3363,88.3674,88.1522,300.3550, ,1.40643
2736,66.5034,103.5962,87.8126,87.6242,300.3550, ,1.40484
2741,66.5884,82.5856,91.0425,89.0175,300.3550, ,1.40325
2746,66.6734,86.8690,90.9029,88.8961,300.3550, ,1.40167
2751,66.7584,95.6098,90.7702,88.7746,300.3550, ,1.40009
2756,66.8434,85.1768,90.6258,88.6532,300.3550, ,1.39852
2761,66.9284,97.1096,90.3987,88.4060,300.3550, ,1.39695
2766,67.0134,90.6087,90.1594,88.1588,300.3550, ,1.39538
2771,67.0984,91.9294,89.9264,87.9115,300.3550, ,1.39382
2776,67.1834,103.9088,89.6995,87.6643,300.3550, ,1.39226
2781,67.2684,90.1327,89.0409,87.4171,300.3550, ,1.39071
2786,67.3534,97.4322,88.8956,87.2193,300.3550, ,1.38916
2791,67.4384,79.0374,88.8751,87.2193,300.3550, ,1.38762
2796,67.5234,87.7990,88.8068,87.2193,300.3550, ,1.38608
2801,67.6084,79.3911,88.8854,87.2193,300.3550, ,1.38454
2806,67.6934,88.2613,88.9700,87.2193,300.3550, ,1.38301
2811,67.7784,83.0632,89.0612,87.2193,300.3550, ,1.38148
2816,67.8634,80.8323,87.8226,85.0433,300.3550, ,1.37996
2821,67.9484,91.4813,88.3365,85.4037,300.3550, ,1.37844
2826,68.0334,84.2606,88.7903,85.6910,300.3550, ,1.37693
2831,68.1184,93.1821,89.1933,85.9128,300.3550, ,1.37541
2836,68.2034,109.6650,89.5544,86.0766,300.3550, ,1.37391
2841,68.2884,84.5914,89.8828,86.1892,300.3550, ,1.37240
2846,68.3734,95.7349,90.1874,86.2573,300.3550, ,1.37090
2851,68.4584,93.2502,90.4772,86.2872,300.3550, ,1.36941
2856,68.5434,100.0673,90.7614,86.2849,300.3550, ,1.36792
2861,68.6284,97.4924,91.0494,86.2560,300.3550, ,1.36643
2866,68.7134,86.5111,91.3509,86.2058,300.3550, ,1.36495
2871,68.7984,93.2559,91.6763,86.1394,300.3550, ,1.36347
2876,68.8834,92.7662,92.0365,86.0614,300.3550, ,1.36199
2881,68.9684,102.2960,92.4435,85.9761,300.3550, ,1.36052
2886,69.0534,85.2072,92.9105,85.8876,300.3550, ,1.35906
2891,69.1384,93.9185,93.4527,85.7997,300.3550, ,1.35759
2896,69.2234,94.3161,94.0872,85.7156,300.3550, ,1.35613
2901,69.3084,107.6528,94.8345,85.6385,300.3550, ,1.35468
2906,69.3934,103.1196,95.7191,85.5712,300.3550, ,1.35323
2911,69.4784,100.1393,96.7710,85.5161,300.3550, ,1.35178
2916,69.5634,92.2454,98.0279,85.4754,300.3550, ,1.35033
2921,69.6484,102.7732,99.5376,85.4510,300.3550, ,1.34889
2926,69.7334,104.2750,101.3626,85.4443,300.3550, ,1.34746
2931,69.8184,109.3955,104.0505,84.8406,300.3550, ,1.34602
2936,69.9034,103.3395,105.4892,83.4110,300.3550, ,1.34460
2941,69.9884,106.0184,107.8988,82.2664,300.3550, ,1.34317
2946,70.0734,119.0206,111.5001,81.3937,300.3550, ,1.34175
2951,70.1584,112.4565,116.6201,80.7784,300.3550, ,1.34033
2956,70.2434,137.7484,123.7596,80.4050,300.3550, ,1.33892
2961,70.3284,130.2911,133.7194,80.2564,300.3550, ,1.33751
2966,70.4134,137.4454,147.8447,80.3147,300.3550, ,1.33610
2971,70.4984,177.3538,168.4676,80.5604,300.3550, ,1.33470
2976,70.5834,200.3724,199.5915,80.9732,300.3550, ,1.33330
2981,70.6684,249.4978,247.6415,81.5311,300.3550, ,1.33190
2986,70.7534,311.5011,321.4765,82.2113,300.3550, ,1.33051
2991,70.8384,424.5396,427.5303,82.9898,300.3550, ,1.32912
2996,70.9234,513.6098,548.0921,83.8412,300.3550, ,1.32774
3001,71.0084,674.7447,617.8301,84.7391,300.3550, ,1.32636
3006,71.0934,591.7190,600.9814,85.6560,300.3550, ,1.32498
3011,71.1784,505.0115,536.8042,86.5629,300.3550, ,1.32361
3016,71.2634,428.8760,443.5697,87.4302,300.3550, ,1.32224
3021,71.3484,356.6683,345.3173,88.2266,300.3550, ,1.32087
3026,71.4334,244.7499,268.9450,88.9200,300.3550, ,1.31951
3031,71.5184,213.4185,217.4059,89.4771,300.3550, ,1.31815
3036,71.6034,195.3459,183.7694,89.8635,300.3550, ,1.31679
3041,71.6884,174.0037,161.4632,90.0436,300.3550, ,1.31544
3046,71.7734,140.8434,146.0517,89.9807,300.3550, ,1.31409
3051,71.8584,153.8661,134.8190,89.6372,300.3550, ,1.31275
3056,71.9434,122.4473,126.1480,88.9741,300.3550, ,1.31140
3061,72.0284,132.0229,119.0612,87.9515,300.3550, ,1.31006
3066,72.1134,117.7854,114.7394,89.5652,300.3550, ,1.30873
3071,72.1984,109.0112,111.0666,89.4461,300.3550, ,1.30740
3076,72.2834,114.3131,108.0239,89.2587,300.3550, ,1.30607
3081,72.3684,107.3599,105.4336,88.9960,300.3550, ,1.30475
3086,72.4534,108.3049,103.1666,88.6506,300.3550, ,1.30342
3091,72.5384,102.4846,101.1265,88.2152,300.3550, ,1.30211
3096,72.6234,101.1207,99.2398,87.6818,300.3550, ,1.30079
3101,72.7084,97.7432,97.4486,87.0425,300.3550, ,1.29948
3106,72.7934,86.5640,95.7070,86.2892,300.3550, ,1.29817
3111,72.8784,89.3071,105.5306,98.5667,300.3550, ,1.29687
3116,72.9634,98.1709,104.5149,98.0154,300.3550, ,1.29557
3121,73.0484,93.2859,103.5765,97.4642,300.3550, ,1.29427
3126,73.1334,105.0182,103.3418,96.9129,300.3550, ,1.29297
3131,73.2184,94.2635,102.5638,96.3617,300.3550, ,1.29168
3136,73.3034,87.6274,102.1384,96.1031,300.3550, ,1.29039
3141,73.3884,90.2515,101.9661,96.0397,300.3550, ,1.28911
3146,73.4734,91.0897,101.8519,95.9763,300.3550, ,1.28783
3151,73.5584,83.0815,101.7985,95.9129,300.3550, ,1.28655
3156,73.6434,94.2128,98.0372,96.8491,300.3550, ,1.28527
3161,73.7284,96.7947,98.5401,97.1717,300.3550, ,1.28400
3166,73.8134,90.9651,98.8836,97.2839,300.3550, ,1.28273
3171,73.8984,100.9379,99.1349,97.2204,300.3550, ,1.28147
3176,73.9834,100.6884,99.3934,97.0159,300.3550, ,1.28021
3181,74.0684,96.4859,99.8173,96.7049,300.3550, ,1.27895
3186,74.1534,107.1354,100.6533,96.3221,300.3550, ,1.27769
3191,74.2384,97.3192,102.2499,95.9023,300.3550, ,1.27644
3196,74.3234,99.7796,105.0227,95.4799,300.3550, ,1.27519
3201,74.4084,115.4707,109.3427,95.0898,300.3550, ,1.27394
3206,74.4934,121.8414,115.3506,94.7665,300.3550, ,1.27270
3211,74.5784,139.4050,122.7211,94.5446,300.3550, ,1.27146
3216,74.6634,138.3092,130.4069,94.4589,300.3550, ,1.27022
3221,74.7484,132.9966,136.5586,94.5440,300.3550, ,1.26899
3226,74.8334,136.0307,139.3273,94.8345,300.3550, ,1.26776
3231,74.9184,135.6979,138.2659,95.3650,300.3550, ,1.26653
3236,75.0034,139.4182,134.2032,96.1703,300.3550, ,1.26531
3241,75.0884,117.4740,128.3996,97.2850,300.3550, ,1.26408
3246,75.1734,131.6382,122.3991,98.7437,300.3550, ,1.26287
3251,75.2584,136.2829,117.5342,100.5810,300.3550, ,1.26165
3256,75.3434,102.8705,114.4882,102.8316,300.3550, ,1.26044
3261,75.4284,112.8688,113.3846,105.5302,300.3550, ,1.25923
3266,75.5134,103.2622,114.0353,108.7118,300.3550, ,1.25802
3271,75.5984,120.0233,116.1400,112.4103,300.3550, ,1.25682
3276,75.6834,107.9694,119.4133,116.6607,300.3550, ,1.25562
3281,75.7684,123.3266,123.6451,121.4977,300.3550, ,1.25442
3286,75.8534,130.6487,128.7096,126.9559,300.3550, ,1.25323
3291,75.9384,134.2999,108.1431,94.1379,300.3550, ,1.25204
3296,76.0234,162.4957,110.0017,94.0745,300.3550, ,1.25085
3301,76.1084,154.9289,154.3231,110.9691,300.3550, ,1.24966
3306,76.1934,177.5175,172.8603,118.9742,300.3550, ,1.24848
3311,76.2784,195.1914,193.3074,124.7374,300.3550, ,1.24730
3316,76.3634,217.0376,218.0703,128.5727,300.3550, ,1.24612
3321,76.4484,239.8056,250.4219,130.7932,300.3550, ,1.24495
3326,76.5334,299.8750,294.1653,131.7121,300.3550, ,1.24378
3331,76.6184,365.3440,351.2274,131.6426,300.3550, ,1.24261
3336,76.7034,409.2750,414.1471,130.8978,300.3550, ,1.24144
3341,76.7884,455.3815,458.6839,129.7909,300.3550, ,1.24028
3346,76.8734,475.5128,463.6206,128.6350,300.3550, ,1.23912
3351,76.9584,435.3141,437.5693,127.7434,300.3550, ,1.23796
3356,77.0434,383.3531,394.1713,127.4292,300.3550, ,1.23681
3361,77.1284,378.0514,340.7891,128.0057,300.3550, ,1.23566
3366,77.2134,293.4760,290.4620,129.7858,300.3550, ,1.23451
3371,77.2984,254.2038,252.4342,133.0829,300.3550, ,1.23337
3376,77.3834,215.7406,227.7285,138.2101,300.3550, ,1.23222
3381,77.4684,219.0792,214.0612,145.4806,300.3550, ,1.23108
3386,77.5534,208.9749,221.3198,198.0186,300.3550, ,1.22995
3391,77.6384,215.1942,222.5816,191.4239,300.3550, ,1.22881
3396,77.7234,236.9329,228.5623,184.8995,300.3550, ,1.22768
3401,77.8084,252.9763,243.5365,178.4584,300.3550, ,1.22655
3406,77.8934,288.9181,277.0314,172.1146,300.3550, ,1.22543
3411,77.9784,355.4801,348.4579,165.8821,300.3550, ,1.22430
3416,78.0634,483.8360,461.5146,159.7747,300.3550, ,1.22318
3421,78.1484,521.2234,484.0862,153.8067,300.3550, ,1.22206
3426,78.2334,384.7566,413.4377,147.9922,300.3550, ,1.22095
3431,78.3184,410.2765,382.8189,142.3451,300.3550, ,1.21984
3436,78.4034,328.1955,318.5924,136.8808,300.3550, ,1.21873
3441,78.4884,226.9484,240.6881,131.6133,300.3550, ,1.21762
3446,78.5734,206.2497,193.1962,126.5571,300.3550, ,1.21652
3451,78.6584,166.2442,165.7474,121.7269,300.3550, ,1.21541
3456,78.7434,145.8240,148.2484,117.1375,300.3550, ,1.21432
3461,78.8284,126.3762,135.9441,112.8037,300.3550, ,1.21322
3466,78.9134,119.2320,126.6300,108.7404,300.3550, ,1.21213
3471,78.9984,139.8434,119.2120,104.9627,300.3550, ,1.21103
3476,79.0834,101.0969,113.1066,101.4853,300.3550, ,1.20995
3481,79.1684,118.3274,107.9859,98.3242,300.3550, ,1.20886
3486,79.2534,126.8910,103.6550,95.4942,300.3550, ,1.20778
3491,79.3384,97.0642,99.9963,93.0107,300.3550, ,1.20670
3496,79.4234,101.3345,96.9371,90.8891,300.3550, ,1.20562
3501,79.5084,98.3556,94.4327,89.1450,300.3550, ,1.20454
3506,79.5934,85.3404,92.4568,87.7941,300.3550, ,1.20347
3511,79.6784,92.0159,90.9945,86.8520,300.3550, ,1.20240
3516,79.7634,85.0147,90.0393,86.3344,300.3550, ,1.20133
3521,79.8484,87.9178,92.2792,90.8689,300.3550, ,1.20027
3526,79.9334,98.4717,91.9663,90.6452,300.3550, ,1.19920
3529,79.9844,75.7283,91.5445,90.5109,300.3550, ,1.19857