File: XRD/H1120.asc
15 	40
15.06 	43
15.12 	56
15.18 	48
15.24 	41
15.3 	37
15.36 	37
15.42 	58
15.48 	48
15.54 	48
15.6 	59
15.66 	52
15.72 	44
15.78 	36
15.84 	60
15.9 	57
15.96 	49
16.02 	35
16.08 	52
16.14 	35
16.2 	49
16.26 	48
16.32 	60
16.38 	69
16.44 	51
16.5 	63
16.56 	62
16.62 	58
16.68 	66
16.74 	65
16.8 	56
16.86 	50
16.92 	54
16.98 	52
17.04 	51
17.1 	55
17.16 	36
17.22 	43
17.28 	34
17.34 	40
17.4 	44
17.46 	31
17.52 	20
17.58 	29
17.64 	34
17.7 	32
17.76 	28
17.82 	23
17.88 	23
17.94 	18
18 	21
18.06 	24
18.12 	24
18.18 	27
18.24 	21
18.3 	32
18.36 	25
18.42 	16
18.48 	20
18.54 	25
18.6 	28
18.66 	15
18.72 	20
18.78 	15
18.84 	17
18.9 	20
18.96 	18
19.02 	25
19.08 	21
19.14 	24
19.2 	23
19.26 	17
19.32 	29
19.38 	24
19.44 	23
19.5 	16
19.56 	22
19.62 	18
19.68 	35
19.74 	24
19.8 	19
19.86 	31
19.92 	22
19.98 	24
20.04 	26
20.1 	22
20.16 	25
20.22 	34
20.28 	22
20.34 	25
20.4 	26
20.46 	22
20.52 	18
20.58 	32
20.64 	33
20.7 	37
20.76 	26
20.82 	23
20.88 	35
20.94 	26
21 	24
21.06 	23
21.12 	29
21.18 	34
21.24 	24
21.3 	25
21.36 	32
21.42 	33
21.48 	22
21.54 	25
21.6 	33
21.66 	27
21.72 	27
21.78 	30
21.84 	25
21.9 	37
21.96 	25
22.02 	27
22.08 	36
22.14 	34
22.2 	30
22.26 	28
22.32 	22
22.38 	28
22.44 	27
22.5 	30
22.56 	34
22.62 	31
22.68 	36
22.74 	22
22.8 	24
22.86 	31
22.92 	23
22.98 	21
23.04 	22
23.1 	33
23.16 	29
23.22 	26
23.28 	21
23.34 	14
23.4 	21
23.46 	22
23.52 	31
23.58 	35
23.64 	21
23.7 	31
23.76 	24
23.82 	27
23.88 	22
23.94 	26
24 	28
24.06 	29
24.12 	21
24.18 	19
24.24 	25
24.3 	28
24.36 	34
24.42 	18
24.48 	22
24.54 	22
24.6 	17
24.66 	25
24.72 	19
24.78 	19
24.84 	24
24.9 	22
24.96 	30
25.02 	20
25.08 	28
25.14 	17
25.2 	19
25.26 	28
25.32 	27
25.38 	19
25.44 	20
25.5 	25
25.56 	26
25.62 	19
25.68 	23
25.74 	21
25.8 	23
25.86 	17
25.92 	23
25.98 	10
26.04 	18
26.1 	15
26.16 	14
26.22 	18
26.28 	16
26.34 	7
26.4 	15
26.46 	14
26.52 	22
26.58 	17
26.64 	20
26.7 	20
26.76 	24
26.82 	12
26.88 	21
26.94 	28
27 	17
27.06 	28
27.12 	20
27.18 	23
27.24 	11
27.3 	17
27.36 	23
27.42 	20
27.48 	27
27.54 	11
27.6 	24
27.66 	18
27.72 	13
27.78 	32
27.84 	11
27.9 	20
27.96 	17
28.02 	12
28.08 	19
28.14 	10
28.2 	23
28.26 	14
28.32 	16
28.38 	14
28.44 	20
28.5 	12
28.56 	23
28.62 	12
28.68 	19
28.74 	16
28.8 	15
28.86 	17
28.92 	27
28.98 	22
29.04 	12
29.1 	14
29.16 	20
29.22 	16
29.28 	17
29.34 	22
29.4 	22
29.46 	16
29.52 	22
29.58 	20
29.64 	19
29.7 	14
29.76 	15
29.82 	24
29.88 	18
29.94 	19
30 	11
30.06 	15
30.12 	16
30.18 	15
30.24 	13
30.3 	19
30.36 	14
30.42 	16
30.48 	20
30.54 	9
30.6 	10
30.66 	18
30.72 	19
30.78 	18
30.84 	18
30.9 	14
30.96 	14
31.02 	10
31.08 	17
31.14 	18
31.2 	18
31.26 	19
31.32 	17
31.38 	14
31.44 	16
31.5 	15
31.56 	20
31.62 	11
31.68 	19
31.74 	11
31.8 	16
31.86 	18
31.92 	10
31.98 	20
32.04 	18
32.1 	17
32.16 	18
32.22 	17
32.28 	13
32.34 	13
32.4 	13
32.46 	18
32.52 	12
32.58 	11
32.64 	18
32.7 	18
32.76 	8
32.82 	13
32.88 	10
32.94 	14
33 	17
33.06 	12
33.12 	18
33.18 	14
33.24 	16
33.3 	11
33.36 	22
33.42 	12
33.48 	20
33.54 	22
33.6 	16
33.66 	11
33.72 	13
33.78 	13
33.84 	18
33.9 	13
33.96 	13
34.02 	13
34.08 	22
34.14 	13
34.2 	15
34.26 	14
34.32 	10
34.38 	13
34.44 	14
34.5 	16
34.56 	12
34.62 	15
34.68 	19
34.74 	8
34.8 	17
34.86 	14
34.92 	23
34.98 	22
35.04 	20
35.1 	17
35.16 	19
35.22 	26
35.28 	34
35.34 	36
35.4 	54
35.46 	35
35.52 	37
35.58 	34
35.64 	21
35.7 	17
35.76 	26
35.82 	13
35.88 	14
35.94 	19
36 	15
36.06 	16
36.12 	21
36.18 	16
36.24 	16
36.3 	12
36.36 	10
36.42 	12
36.48 	16
36.54 	11
36.6 	14
36.66 	13
36.72 	14
36.78 	17
36.84 	22
36.9 	18
36.96 	15
37.02 	15
37.08 	18
37.14 	14
37.2 	18
37.26 	10
37.32 	16
37.38 	27
37.44 	16
37.5 	30
37.56 	27
37.62 	23
37.68 	25
37.74 	25
37.8 	28
37.86 	25
37.92 	16
37.98 	20
38.04 	30
38.1 	35
38.16 	46
38.22 	43
38.28 	43
38.34 	94
38.4 	176
38.46 	632
38.52 	815
38.58 	558
38.64 	296
38.7 	100
38.76 	49
38.82 	39
38.88 	26
38.94 	27
39 	23
39.06 	21
39.12 	27
39.18 	24
39.24 	34
39.3 	16
39.36 	23
39.42 	22
39.48 	27
39.54 	15
39.6 	13
39.66 	19
39.72 	26
39.78 	19
39.84 	18
39.9 	22
39.96 	23
40.02 	19
40.08 	21
40.14 	35
40.2 	57
40.26 	59
40.32 	70
40.38 	118
40.44 	151
40.5 	114
40.56 	107
40.62 	68
40.68 	53
40.74 	28
40.8 	24
40.86 	10
40.92 	17
40.98 	15
41.04 	13
41.1 	15
41.16 	16
41.22 	19
41.28 	14
41.34 	14
41.4 	10
41.46 	15
41.52 	12
41.58 	14
41.64 	11
41.7 	18
41.76 	9
41.82 	13
41.88 	12
41.94 	19
42 	12
42.06 	14
42.12 	10
42.18 	11
42.24 	16
42.3 	8
42.36 	14
42.42 	14
42.48 	15
42.54 	5
42.6 	11
42.66 	18
42.72 	8
42.78 	6
42.84 	10
42.9 	8
42.96 	8
43.02 	13
43.08 	11
43.14 	14
43.2 	23
43.26 	18
43.32 	9
43.38 	12
43.44 	8
43.5 	10
43.56 	19
43.62 	16
43.68 	16
43.74 	15
43.8 	17
43.86 	10
43.92 	15
43.98 	17
44.04 	21
44.1 	15
44.16 	18
44.22 	21
44.28 	24
44.34 	27
44.4 	26
44.46 	35
44.52 	27
44.58 	54
44.64 	151
44.7 	475
44.76 	320
44.82 	265
44.88 	143
44.94 	53
45 	18
45.06 	20
45.12 	18
45.18 	14
45.24 	13
45.3 	14
45.36 	9
45.42 	13
45.48 	15
45.54 	13
45.6 	18
45.66 	11
45.72 	7
45.78 	12
45.84 	13
45.9 	7
45.96 	17
46.02 	6
46.08 	6
46.14 	15
46.2 	9
46.26 	7
46.32 	7
46.38 	13
46.44 	12
46.5 	10
46.56 	8
46.62 	14
46.68 	9
46.74 	9
46.8 	11
46.86 	7
46.92 	11
46.98 	11
47.04 	3
47.1 	11
47.16 	12
47.22 	9
47.28 	8
47.34 	15
47.4 	7
47.46 	16
47.52 	9
47.58 	18
47.64 	14
47.7 	10
47.76 	10
47.82 	15
47.88 	7
47.94 	10
48 	8
48.06 	11
48.12 	14
48.18 	19
48.24 	6
48.3 	9
48.36 	14
48.42 	7
48.48 	8
48.54 	5
48.6 	10
48.66 	5
48.72 	9
48.78 	12
48.84 	14
48.9 	6
48.96 	12
49.02 	4
49.08 	9
49.14 	7
49.2 	9
49.26 	8
49.32 	9
49.38 	10
49.44 	7
49.5 	15
49.56 	8
49.62 	14
49.68 	10
49.74 	9
49.8 	8
49.86 	15
49.92 	12
49.98 	8
50.04 	5
50.1 	9
50.16 	10
50.22 	12
50.28 	6
50.34 	6
50.4 	9
50.46 	16
50.52 	6
50.58 	10
50.64 	11
50.7 	6
50.76 	6
50.82 	9
50.88 	12
50.94 	7
51 	11
51.06 	11
51.12 	11
51.18 	6
51.24 	6
51.3 	8
51.36 	11
51.42 	7
51.48 	9
51.54 	9
51.6 	13
51.66 	6
51.72 	9
51.78 	8
51.84 	10
51.9 	15
51.96 	7
52.02 	5
52.08 	8
52.14 	11
52.2 	10
52.26 	11
52.32 	9
52.38 	10
52.44 	10
52.5 	11
52.56 	10
52.62 	8
52.68 	4
52.74 	10
52.8 	14
52.86 	7
52.92 	3
52.98 	6
53.04 	6
53.1 	8
53.16 	18
53.22 	17
53.28 	21
53.34 	27
53.4 	18
53.46 	15
53.52 	16
53.58 	11
53.64 	4
53.7 	11
53.76 	4
53.82 	12
53.88 	8
53.94 	12
54 	4
54.06 	6
54.12 	7
54.18 	4
54.24 	5
54.3 	3
54.36 	2
54.42 	7
54.48 	10
54.54 	4
54.6 	5
54.66 	5
54.72 	10
54.78 	8
54.84 	7
54.9 	8
54.96 	1
55.02 	9
55.08 	10
55.14 	6
55.2 	6
55.26 	9
55.32 	10
55.38 	7
55.44 	6
55.5 	9
55.56 	11
55.62 	10
55.68 	8
55.74 	4
55.8 	12
55.86 	11
55.92 	5
55.98 	9
56.04 	5
56.1 	7
56.16 	6
56.22 	8
56.28 	8
56.34 	4
56.4 	14
56.46 	9
56.52 	9
56.58 	4
56.64 	8
56.7 	8
56.76 	8
56.82 	6
56.88 	10
56.94 	9
57 	6
57.06 	4
57.12 	14
57.18 	6
57.24 	4
57.3 	5
57.36 	9
57.42 	8
57.48 	5
57.54 	5
57.6 	4
57.66 	8
57.72 	8
57.78 	9
57.84 	3
57.9 	5
57.96 	12
58.02 	6
58.08 	3
58.14 	5
58.2 	7
58.26 	7
58.32 	8
58.38 	4
58.44 	4
58.5 	7
58.56 	3
58.62 	7
58.68 	5
58.74 	4
58.8 	7
58.86 	8
58.92 	12
58.98 	6
59.04 	4
59.1 	5
59.16 	4
59.22 	6
59.28 	4
59.34 	7
59.4 	5
59.46 	7
59.52 	8
59.58 	4
59.64 	5
59.7 	8
59.76 	6
59.82 	10
59.88 	6
59.94 	3
60 	8
60.06 	5
60.12 	13
60.18 	2
60.24 	7
60.3 	4
60.36 	3
60.42 	6
60.48 	3
60.54 	8
60.6 	10
60.66 	6
60.72 	5
60.78 	12
60.84 	4
60.9 	6
60.96 	7
61.02 	8
61.08 	7
61.14 	3
61.2 	9
61.26 	5
61.32 	5
61.38 	5
61.44 	7
61.5 	9
61.56 	7
61.62 	6
61.68 	10
61.74 	7
61.8 	9
61.86 	9
61.92 	7
61.98 	5
62.04 	8
62.1 	6
62.16 	4
62.22 	5
62.28 	8
62.34 	8
62.4 	6
62.46 	5
62.52 	7
62.58 	4
62.64 	8
62.7 	10
62.76 	6
62.82 	8
62.88 	9
62.94 	3
63 	5
63.06 	11
63.12 	9
63.18 	10
63.24 	6
63.3 	14
63.36 	19
63.42 	10
63.48 	13
63.54 	19
63.6 	14
63.66 	12
63.72 	14
63.78 	8
63.84 	11
63.9 	9
63.96 	10
64.02 	6
64.08 	7
64.14 	8
64.2 	7
64.26 	7
64.32 	10
64.38 	11
64.44 	9
64.5 	5
64.56 	9
64.62 	7
64.68 	9
64.74 	10
64.8 	11
64.86 	21
64.92 	13
64.98 	52
65.04 	105
65.1 	65
65.16 	45
65.22 	54
65.28 	43
65.34 	13
65.4 	12
65.46 	10
65.52 	9
65.58 	4
65.64 	11
65.7 	8
65.76 	7
65.82 	3
65.88 	10
65.94 	4
66 	4
66.06 	4
66.12 	4
66.18 	7
66.24 	2
66.3 	7
66.36 	10
66.42 	6
66.48 	10
66.54 	7
66.6 	6
66.66 	2
66.72 	0
66.78 	5
66.84 	9
66.9 	1
66.96 	6
67.02 	10
67.08 	9
67.14 	8
67.2 	8
67.26 	6
67.32 	6
67.38 	7
67.44 	7
67.5 	4
67.56 	5
67.62 	8
67.68 	5
67.74 	7
67.8 	6
67.86 	7
67.92 	5
67.98 	5
68.04 	9
68.1 	8
68.16 	7
68.22 	8
68.28 	8
68.34 	4
68.4 	6
68.46 	6
68.52 	11
68.58 	5
68.64 	2
68.7 	8
68.76 	7
68.82 	7
68.88 	4
68.94 	7
69 	6
69.06 	8
69.12 	6
69.18 	4
69.24 	11
69.3 	3
69.36 	7
69.42 	8
69.48 	5
69.54 	6
69.6 	7
69.66 	11
69.72 	9
69.78 	5
69.84 	5
69.9 	9
69.96 	7
70.02 	9
70.08 	9
70.14 	6
70.2 	7
70.26 	6
70.32 	4
70.38 	5
70.44 	1
70.5 	5
70.56 	10
70.62 	8
70.68 	9
70.74 	8
70.8 	13
70.86 	10
70.92 	18
70.98 	27
71.04 	22
71.1 	24
71.16 	20
71.22 	14
71.28 	21
71.34 	15
71.4 	9
71.46 	5
71.52 	10
71.58 	7
71.64 	7
71.7 	5
71.76 	8
71.82 	8
71.88 	8
71.94 	5
72 	6
72.06 	5
72.12 	5
72.18 	5
72.24 	9
72.3 	5
72.36 	9
72.42 	7
72.48 	9
72.54 	3
72.6 	12
72.66 	8
72.72 	7
72.78 	7
72.84 	5
72.9 	4
72.96 	7
73.02 	7
73.08 	5
73.14 	4
73.2 	4
73.26 	4
73.32 	5
73.38 	3
73.44 	6
73.5 	10
73.56 	3
73.62 	6
73.68 	7
73.74 	7
73.8 	5
73.86 	4
73.92 	8
73.98 	6
74.04 	3
74.1 	7
74.16 	5
74.22 	11
74.28 	4
74.34 	5
74.4 	8
74.46 	2
74.52 	7
74.58 	7
74.64 	4
74.7 	7
74.76 	11
74.82 	11
74.88 	8
74.94 	7
75 	10
75.06 	11
75.12 	8
75.18 	9
75.24 	2
75.3 	8
75.36 	7
75.42 	7
75.48 	5
75.54 	6
75.6 	5
75.66 	6
75.72 	5
75.78 	3
75.84 	6
75.9 	14
75.96 	7
76.02 	4
76.08 	4
76.14 	3
76.2 	10
76.26 	11
76.32 	9
76.38 	3
76.44 	14
76.5 	7
76.56 	11
76.62 	12
76.68 	16
76.74 	15
76.8 	11
76.86 	12
76.92 	16
76.98 	13
77.04 	22
77.1 	21
77.16 	10
77.22 	14
77.28 	8
77.34 	9
77.4 	5
77.46 	10
77.52 	9
77.58 	8
77.64 	13
77.7 	17
77.76 	10
77.82 	11
77.88 	16
77.93999 	12
78 	24
78.06 	37
78.12 	84
78.18 	72
78.24 	48
78.3 	49
78.36 	40
78.42 	45
78.48 	23
78.54 	10
78.6 	11
78.66 	8
78.72 	10
78.78 	9
78.84 	4
78.9 	7
78.96 	4
79.02 	4
79.08 	8
79.14 	7
79.2 	10
79.26 	2
79.32 	6
79.38 	6
79.43999 	12
79.5 	9
79.56 	11
79.62 	6
79.68 	7
79.74 	5
79.8 	9
79.86 	8
79.92 	3
79.98 	10
80.04 	6
80.1 	4
80.16 	3
80.22 	5
80.28 	5
80.34 	4
80.4 	5
80.46 	2
80.52 	6
80.58 	3
80.64 	6
80.7 	7
80.76 	4
80.82 	2
80.88 	11
80.93999 	5
81 	7
81.06 	9
81.12 	7
81.18 	5
81.24 	6
81.3 	4
81.36 	1
81.42 	5
81.48 	4
81.54 	6
81.6 	6
81.66 	6
81.72 	1
81.78 	5
81.84 	5
81.9 	3
81.96 	6
82.02 	7
82.08 	6
82.14 	4
82.2 	4
82.26 	11
82.32 	16
82.38 	10
82.43999 	11
82.5 	12
82.56 	11
82.62 	14
82.68 	7
82.74 	6
82.8 	10
82.86 	7
82.92 	4
82.98 	12
83.04 	7
83.1 	5
83.16 	5
83.22 	4
83.28 	5
83.34 	9
83.4 	5
83.46 	7
83.52 	2
83.58 	3
83.64 	5
83.7 	2
83.76 	6
83.82 	5
83.88 	8
83.93999 	6
84 	7
84.06 	4
84.12 	5
84.18 	7
84.24 	2
84.3 	3
84.36 	7
84.42 	5
84.48 	7
84.54 	6
84.6 	7
84.66 	4
84.72 	3
84.78 	4
84.84 	3
84.9 	4
84.96 	4
85.02 	8
85.08 	5
85.14 	4
85.2 	3
85.26 	3
85.32 	6
85.38 	8
85.43999 	3
85.5 	6
85.56 	0
85.62 	3
85.68 	3
85.74 	7
85.8 	5
85.86 	6
85.92 	2
85.98 	1
86.04 	3
86.1 	8
86.16 	4
86.22 	7
86.28 	6
86.34 	6
86.4 	4
86.46 	9
86.52 	7
86.58 	4
86.64 	5
86.7 	4
86.76 	7
86.82 	7
86.88 	2
86.93999 	5
87 	6
87.06 	1
87.12 	6
87.18 	8
87.24 	6
87.3 	6
87.36 	6
87.42 	4
87.48 	10
87.54 	6
87.6 	10
87.66 	6
87.72 	3
87.78 	6
87.84 	7
87.9 	6
87.96 	3
88.02 	2
88.08 	6
88.14 	3
88.2 	6
88.26 	4
88.32 	4
88.38 	9
88.43999 	2
88.5 	10
88.56 	4
88.62 	1
88.68 	1
88.74 	7
88.8 	4
88.86 	6
88.92 	6
88.98 	2
89.04 	4
89.1 	2
89.16 	2
89.22 	5
89.28 	5
89.34 	5
89.4 	1
89.46 	4
89.52 	2
89.58 	3
89.64 	1
89.7 	4
89.76 	4
89.82 	8
89.88 	6
89.93999 	3
90 	4