File: XRD/H560.asc
15 	37
15.06 	35
15.12 	34
15.18 	31
15.24 	46
15.3 	53
15.36 	33
15.42 	41
15.48 	36
15.54 	45
15.6 	44
15.66 	36
15.72 	47
15.78 	39
15.84 	38
15.9 	29
15.96 	41
16.02 	35
16.08 	54
16.14 	42
16.2 	36
16.26 	41
16.32 	33
16.38 	46
16.44 	37
16.5 	45
16.56 	41
16.62 	35
16.68 	48
16.74 	56
16.8 	38
16.86 	53
16.92 	29
16.98 	30
17.04 	41
17.1 	33
17.16 	34
17.22 	42
17.28 	33
17.34 	31
17.4 	43
17.46 	32
17.52 	23
17.58 	17
17.64 	26
17.7 	28
17.76 	29
17.82 	23
17.88 	21
17.94 	34
18 	25
18.06 	26
18.12 	40
18.18 	33
18.24 	28
18.3 	26
18.36 	22
18.42 	21
18.48 	25
18.54 	20
18.6 	37
18.66 	20
18.72 	30
18.78 	27
18.84 	21
18.9 	24
18.96 	26
19.02 	23
19.08 	32
19.14 	25
19.2 	26
19.26 	23
19.32 	34
19.38 	36
19.44 	21
19.5 	40
19.56 	33
19.62 	29
19.68 	31
19.74 	29
19.8 	28
19.86 	28
19.92 	26
19.98 	28
20.04 	35
20.1 	25
20.16 	41
20.22 	30
20.28 	20
20.34 	32
20.4 	23
20.46 	25
20.52 	30
20.58 	27
20.64 	26
20.7 	28
20.76 	27
20.82 	31
20.88 	32
20.94 	32
21 	20
21.06 	30
21.12 	28
21.18 	36
21.24 	28
21.3 	31
21.36 	24
21.42 	28
21.48 	30
21.54 	35
21.6 	28
21.66 	34
21.72 	34
21.78 	34
21.84 	43
21.9 	24
21.96 	28
22.02 	32
22.08 	29
22.14 	28
22.2 	29
22.26 	28
22.32 	28
22.38 	30
22.44 	29
22.5 	22
22.56 	28
22.62 	36
22.68 	31
22.74 	13
22.8 	38
22.86 	25
22.92 	29
22.98 	36
23.04 	18
23.1 	23
23.16 	19
23.22 	31
23.28 	30
23.34 	18
23.4 	19
23.46 	29
23.52 	21
23.58 	12
23.64 	27
23.7 	26
23.76 	23
23.82 	25
23.88 	26
23.94 	23
24 	24
24.06 	24
24.12 	22
24.18 	31
24.24 	27
24.3 	24
24.36 	29
24.42 	21
24.48 	25
24.54 	17
24.6 	20
24.66 	28
24.72 	20
24.78 	21
24.84 	38
24.9 	20
24.96 	20
25.02 	32
25.08 	23
25.14 	21
25.2 	26
25.26 	25
25.32 	29
25.38 	24
25.44 	25
25.5 	24
25.56 	23
25.62 	24
25.68 	28
25.74 	24
25.8 	21
25.86 	22
25.92 	21
25.98 	24
26.04 	26
26.1 	22
26.16 	19
26.22 	21
26.28 	20
26.34 	26
26.4 	25
26.46 	20
26.52 	13
26.58 	20
26.64 	25
26.7 	25
26.76 	26
26.82 	17
26.88 	24
26.94 	23
27 	23
27.06 	23
27.12 	30
27.18 	12
27.24 	16
27.3 	22
27.36 	17
27.42 	23
27.48 	22
27.54 	19
27.6 	22
27.66 	21
27.72 	19
27.78 	33
27.84 	24
27.9 	27
27.96 	23
28.02 	22
28.08 	17
28.14 	22
28.2 	22
28.26 	21
28.32 	25
28.38 	24
28.44 	22
28.5 	14
28.56 	23
28.62 	22
28.68 	24
28.74 	16
28.8 	25
28.86 	21
28.92 	15
28.98 	28
29.04 	20
29.1 	24
29.16 	18
29.22 	24
29.28 	25
29.34 	23
29.4 	23
29.46 	28
29.52 	23
29.58 	22
29.64 	28
29.7 	19
29.76 	14
29.82 	24
29.88 	21
29.94 	24
30 	14
30.06 	19
30.12 	30
30.18 	15
30.24 	19
30.3 	14
30.36 	22
30.42 	15
30.48 	18
30.54 	20
30.6 	23
30.66 	29
30.72 	22
30.78 	28
30.84 	24
30.9 	19
30.96 	15
31.02 	31
31.08 	15
31.14 	19
31.2 	32
31.26 	22
31.32 	14
31.38 	24
31.44 	24
31.5 	23
31.56 	22
31.62 	29
31.68 	22
31.74 	20
31.8 	16
31.86 	23
31.92 	20
31.98 	19
32.04 	19
32.1 	18
32.16 	14
32.22 	16
32.28 	19
32.34 	18
32.4 	16
32.46 	16
32.52 	22
32.58 	21
32.64 	18
32.7 	22
32.76 	17
32.82 	27
32.88 	15
32.94 	20
33 	16
33.06 	20
33.12 	16
33.18 	7
33.24 	20
33.3 	20
33.36 	19
33.42 	10
33.48 	23
33.54 	22
33.6 	20
33.66 	18
33.72 	20
33.78 	15
33.84 	20
33.9 	16
33.96 	12
34.02 	21
34.08 	22
34.14 	19
34.2 	22
34.26 	24
34.32 	16
34.38 	20
34.44 	30
34.5 	21
34.56 	25
34.62 	21
34.68 	29
34.74 	20
34.8 	17
34.86 	30
34.92 	33
34.98 	24
35.04 	35
35.1 	37
35.16 	59
35.22 	57
35.28 	74
35.34 	85
35.4 	65
35.46 	64
35.52 	26
35.58 	45
35.64 	24
35.7 	37
35.76 	27
35.82 	26
35.88 	28
35.94 	19
36 	24
36.06 	26
36.12 	20
36.18 	23
36.24 	20
36.3 	27
36.36 	23
36.42 	26
36.48 	18
36.54 	17
36.6 	19
36.66 	20
36.72 	21
36.78 	11
36.84 	21
36.9 	26
36.96 	24
37.02 	20
37.08 	29
37.14 	27
37.2 	27
37.26 	24
37.32 	24
37.38 	30
37.44 	28
37.5 	26
37.56 	25
37.62 	26
37.68 	25
37.74 	39
37.8 	30
37.86 	28
37.92 	49
37.98 	45
38.04 	60
38.1 	83
38.16 	154
38.22 	467
38.28 	781
38.34 	820
38.4 	628
38.46 	446
38.52 	229
38.58 	151
38.64 	76
38.7 	68
38.76 	55
38.82 	40
38.88 	49
38.94 	32
39 	40
39.06 	51
39.12 	44
39.18 	41
39.24 	47
39.3 	36
39.36 	40
39.42 	49
39.48 	41
39.54 	28
39.6 	37
39.66 	34
39.72 	41
39.78 	46
39.84 	40
39.9 	63
39.96 	55
40.02 	59
40.08 	97
40.14 	92
40.2 	121
40.26 	199
40.32 	249
40.38 	228
40.44 	223
40.5 	180
40.56 	146
40.62 	85
40.68 	86
40.74 	69
40.8 	58
40.86 	45
40.92 	43
40.98 	26
41.04 	32
41.1 	30
41.16 	24
41.22 	31
41.28 	24
41.34 	24
41.4 	24
41.46 	20
41.52 	21
41.58 	27
41.64 	19
41.7 	23
41.76 	26
41.82 	28
41.88 	31
41.94 	21
42 	15
42.06 	26
42.12 	16
42.18 	24
42.24 	20
42.3 	8
42.36 	22
42.42 	10
42.48 	23
42.54 	15
42.6 	18
42.66 	17
42.72 	29
42.78 	20
42.84 	20
42.9 	25
42.96 	37
43.02 	18
43.08 	20
43.14 	17
43.2 	21
43.26 	18
43.32 	18
43.38 	23
43.44 	17
43.5 	21
43.56 	16
43.62 	22
43.68 	23
43.74 	17
43.8 	22
43.86 	22
43.92 	20
43.98 	22
44.04 	37
44.1 	27
44.16 	25
44.22 	26
44.28 	58
44.34 	50
44.4 	85
44.46 	186
44.52 	191
44.58 	166
44.64 	125
44.7 	89
44.76 	57
44.82 	32
44.88 	26
44.94 	23
45 	19
45.06 	24
45.12 	15
45.18 	18
45.24 	23
45.3 	9
45.36 	18
45.42 	14
45.48 	18
45.54 	13
45.6 	15
45.66 	21
45.72 	17
45.78 	19
45.84 	23
45.9 	22
45.96 	12
46.02 	15
46.08 	13
46.14 	13
46.2 	15
46.26 	20
46.32 	14
46.38 	18
46.44 	19
46.5 	26
46.56 	21
46.62 	17
46.68 	16
46.74 	20
46.8 	9
46.86 	12
46.92 	14
46.98 	16
47.04 	20
47.1 	12
47.16 	18
47.22 	10
47.28 	17
47.34 	16
47.4 	21
47.46 	17
47.52 	12
47.58 	14
47.64 	15
47.7 	19
47.76 	15
47.82 	8
47.88 	17
47.94 	8
48 	13
48.06 	19
48.12 	10
48.18 	14
48.24 	10
48.3 	12
48.36 	9
48.42 	10
48.48 	8
48.54 	18
48.6 	16
48.66 	11
48.72 	14
48.78 	15
48.84 	8
48.9 	19
48.96 	12
49.02 	10
49.08 	17
49.14 	11
49.2 	13
49.26 	12
49.32 	10
49.38 	13
49.44 	12
49.5 	13
49.56 	15
49.62 	11
49.68 	14
49.74 	7
49.8 	14
49.86 	13
49.92 	10
49.98 	14
50.04 	11
50.1 	16
50.16 	19
50.22 	14
50.28 	10
50.34 	14
50.4 	13
50.46 	14
50.52 	14
50.58 	17
50.64 	11
50.7 	11
50.76 	16
50.82 	14
50.88 	9
50.94 	18
51 	23
51.06 	13
51.12 	20
51.18 	8
51.24 	11
51.3 	6
51.36 	14
51.42 	10
51.48 	7
51.54 	10
51.6 	15
51.66 	10
51.72 	11
51.78 	19
51.84 	11
51.9 	9
51.96 	13
52.02 	9
52.08 	10
52.14 	14
52.2 	13
52.26 	12
52.32 	19
52.38 	14
52.44 	13
52.5 	18
52.56 	12
52.62 	16
52.68 	15
52.74 	9
52.8 	15
52.86 	14
52.92 	18
52.98 	16
53.04 	29
53.1 	29
53.16 	36
53.22 	41
53.28 	32
53.34 	44
53.4 	31
53.46 	21
53.52 	22
53.58 	22
53.64 	21
53.7 	20
53.76 	15
53.82 	26
53.88 	13
53.94 	11
54 	21
54.06 	14
54.12 	9
54.18 	10
54.24 	12
54.3 	11
54.36 	13
54.42 	12
54.48 	19
54.54 	12
54.6 	12
54.66 	11
54.72 	11
54.78 	17
54.84 	15
54.9 	12
54.96 	9
55.02 	14
55.08 	7
55.14 	8
55.2 	8
55.26 	16
55.32 	15
55.38 	12
55.44 	8
55.5 	12
55.56 	19
55.62 	15
55.68 	13
55.74 	9
55.8 	18
55.86 	15
55.92 	13
55.98 	7
56.04 	11
56.1 	13
56.16 	11
56.22 	15
56.28 	11
56.34 	14
56.4 	10
56.46 	13
56.52 	17
56.58 	16
56.64 	12
56.7 	8
56.76 	12
56.82 	11
56.88 	14
56.94 	9
57 	11
57.06 	13
57.12 	19
57.18 	10
57.24 	9
57.3 	11
57.36 	7
57.42 	10
57.48 	18
57.54 	10
57.6 	12
57.66 	19
57.72 	11
57.78 	7
57.84 	17
57.9 	16
57.96 	12
58.02 	14
58.08 	14
58.14 	15
58.2 	6
58.26 	10
58.32 	8
58.38 	9
58.44 	20
58.5 	11
58.56 	9
58.62 	17
58.68 	8
58.74 	17
58.8 	20
58.86 	16
58.92 	9
58.98 	10
59.04 	16
59.1 	13
59.16 	10
59.22 	12
59.28 	12
59.34 	9
59.4 	11
59.46 	11
59.52 	10
59.58 	8
59.64 	10
59.7 	6
59.76 	8
59.82 	8
59.88 	16
59.94 	10
60 	12
60.06 	11
60.12 	7
60.18 	10
60.24 	14
60.3 	12
60.36 	13
60.42 	8
60.48 	8
60.54 	12
60.6 	16
60.66 	14
60.72 	9
60.78 	8
60.84 	15
60.9 	7
60.96 	9
61.02 	13
61.08 	14
61.14 	7
61.2 	20
61.26 	8
61.32 	7
61.38 	13
61.44 	21
61.5 	15
61.56 	14
61.62 	11
61.68 	11
61.74 	10
61.8 	8
61.86 	14
61.92 	12
61.98 	11
62.04 	10
62.1 	14
62.16 	10
62.22 	15
62.28 	17
62.34 	12
62.4 	18
62.46 	16
62.52 	13
62.58 	16
62.64 	17
62.7 	17
62.76 	14
62.82 	18
62.88 	14
62.94 	11
63 	19
63.06 	22
63.12 	25
63.18 	21
63.24 	27
63.3 	28
63.36 	45
63.42 	36
63.48 	37
63.54 	35
63.6 	35
63.66 	33
63.72 	32
63.78 	22
63.84 	31
63.9 	14
63.96 	12
64.02 	20
64.08 	7
64.14 	22
64.2 	11
64.26 	11
64.32 	17
64.38 	17
64.44 	10
64.5 	12
64.56 	27
64.62 	28
64.68 	33
64.74 	55
64.8 	153
64.86 	198
64.92 	171
64.98 	115
65.04 	115
65.1 	79
65.16 	50
65.22 	21
65.28 	23
65.34 	17
65.4 	19
65.46 	19
65.52 	15
65.58 	15
65.64 	14
65.7 	14
65.76 	14
65.82 	12
65.88 	21
65.94 	7
66 	7
66.06 	11
66.12 	14
66.18 	19
66.24 	14
66.3 	13
66.36 	10
66.42 	15
66.48 	13
66.54 	12
66.6 	10
66.66 	10
66.72 	8
66.78 	10
66.84 	8
66.9 	18
66.96 	11
67.02 	11
67.08 	17
67.14 	14
67.2 	14
67.26 	14
67.32 	10
67.38 	9
67.44 	10
67.5 	14
67.56 	20
67.62 	11
67.68 	14
67.74 	8
67.8 	9
67.86 	9
67.92 	16
67.98 	12
68.04 	11
68.1 	18
68.16 	14
68.22 	15
68.28 	10
68.34 	11
68.4 	4
68.46 	9
68.52 	10
68.58 	12
68.64 	11
68.7 	12
68.76 	7
68.82 	14
68.88 	13
68.94 	7
69 	12
69.06 	14
69.12 	15
69.18 	9
69.24 	15
69.3 	11
69.36 	4
69.42 	9
69.48 	12
69.54 	12
69.6 	17
69.66 	5
69.72 	12
69.78 	11
69.84 	8
69.9 	8
69.96 	5
70.02 	11
70.08 	11
70.14 	8
70.2 	9
70.26 	10
70.32 	7
70.38 	12
70.44 	10
70.5 	21
70.56 	12
70.62 	18
70.68 	21
70.74 	29
70.8 	30
70.86 	29
70.92 	32
70.98 	48
71.04 	38
71.1 	46
71.16 	28
71.22 	37
71.28 	25
71.34 	18
71.4 	16
71.46 	23
71.52 	24
71.58 	11
71.64 	19
71.7 	18
71.76 	19
71.82 	16
71.88 	15
71.94 	12
72 	17
72.06 	9
72.12 	14
72.18 	13
72.24 	9
72.3 	10
72.36 	13
72.42 	12
72.48 	9
72.54 	8
72.6 	16
72.66 	9
72.72 	14
72.78 	12
72.84 	10
72.9 	13
72.96 	11
73.02 	12
73.08 	7
73.14 	15
73.2 	19
73.26 	12
73.32 	15
73.38 	9
73.44 	8
73.5 	10
73.56 	9
73.62 	9
73.68 	9
73.74 	10
73.8 	9
73.86 	12
73.92 	9
73.98 	11
74.04 	15
74.1 	13
74.16 	15
74.22 	9
74.28 	15
74.34 	10
74.4 	18
74.46 	16
74.52 	15
74.58 	10
74.64 	15
74.7 	14
74.76 	9
74.82 	4
74.88 	15
74.94 	14
75 	9
75.06 	13
75.12 	10
75.18 	12
75.24 	10
75.3 	16
75.36 	14
75.42 	8
75.48 	18
75.54 	11
75.6 	12
75.66 	13
75.72 	17
75.78 	10
75.84 	16
75.9 	11
75.96 	15
76.02 	13
76.08 	17
76.14 	12
76.2 	16
76.26 	10
76.32 	8
76.38 	21
76.44 	22
76.5 	23
76.56 	18
76.62 	28
76.68 	20
76.74 	29
76.8 	30
76.86 	29
76.92 	21
76.98 	27
77.04 	27
77.1 	22
77.16 	22
77.22 	17
77.28 	17
77.34 	20
77.4 	22
77.46 	15
77.52 	19
77.58 	22
77.64 	23
77.7 	25
77.76 	18
77.82 	34
77.88 	60
77.93999 	103
78 	110
78.06 	81
78.12 	59
78.18 	70
78.24 	54
78.3 	43
78.36 	22
78.42 	14
78.48 	13
78.54 	18
78.6 	19
78.66 	18
78.72 	17
78.78 	13
78.84 	11
78.9 	11
78.96 	17
79.02 	13
79.08 	6
79.14 	10
79.2 	11
79.26 	9
79.32 	15
79.38 	12
79.43999 	16
79.5 	6
79.56 	10
79.62 	14
79.68 	10
79.74 	7
79.8 	8
79.86 	7
79.92 	14
79.98 	9
80.04 	6
80.1 	7
80.16 	12
80.22 	11
80.28 	10
80.34 	15
80.4 	7
80.46 	8
80.52 	11
80.58 	11
80.64 	8
80.7 	8
80.76 	5
80.82 	14
80.88 	7
80.93999 	8
81 	14
81.06 	8
81.12 	12
81.18 	8
81.24 	16
81.3 	12
81.36 	10
81.42 	5
81.48 	9
81.54 	9
81.6 	12
81.66 	8
81.72 	3
81.78 	14
81.84 	9
81.9 	14
81.96 	13
82.02 	23
82.08 	24
82.14 	36
82.2 	32
82.26 	19
82.32 	17
82.38 	22
82.43999 	31
82.5 	19
82.56 	14
82.62 	17
82.68 	14
82.74 	11
82.8 	9
82.86 	18
82.92 	14
82.98 	14
83.04 	15
83.1 	16
83.16 	10
83.22 	11
83.28 	10
83.34 	6
83.4 	4
83.46 	10
83.52 	15
83.58 	9
83.64 	10
83.7 	8
83.76 	10
83.82 	10
83.88 	9
83.93999 	12
84 	9
84.06 	14
84.12 	8
84.18 	21
84.24 	9
84.3 	14
84.36 	9
84.42 	8
84.48 	12
84.54 	9
84.6 	7
84.66 	7
84.72 	9
84.78 	10
84.84 	6
84.9 	10
84.96 	11
85.02 	14
85.08 	13
85.14 	12
85.2 	10
85.26 	6
85.32 	18
85.38 	8
85.43999 	7
85.5 	13
85.56 	7
85.62 	6
85.68 	8
85.74 	6
85.8 	4
85.86 	12
85.92 	17
85.98 	10
86.04 	11
86.1 	8
86.16 	8
86.22 	10
86.28 	5
86.34 	15
86.4 	7
86.46 	6
86.52 	17
86.58 	14
86.64 	12
86.7 	14
86.76 	11
86.82 	9
86.88 	15
86.93999 	15
87 	8
87.06 	8
87.12 	8
87.18 	9
87.24 	8
87.3 	15
87.36 	11
87.42 	16
87.48 	13
87.54 	9
87.6 	11
87.66 	12
87.72 	9
87.78 	13
87.84 	15
87.9 	12
87.96 	7
88.02 	9
88.08 	6
88.14 	13
88.2 	10
88.26 	10
88.32 	13
88.38 	5
88.43999 	11
88.5 	17
88.56 	10
88.62 	5
88.68 	12
88.74 	11
88.8 	9
88.86 	4
88.92 	10
88.98 	8
89.04 	13
89.1 	3
89.16 	11
89.22 	12
89.28 	14
89.34 	10
89.4 	8
89.46 	8
89.52 	12
89.58 	10
89.64 	8
89.7 	12
89.76 	12
89.82 	13
89.88 	11
89.93999 	8
90 	13