File: XRD/H710.asc
15 	32
15.06 	35
15.12 	44
15.18 	30
15.24 	44
15.3 	34
15.36 	46
15.42 	43
15.48 	36
15.54 	41
15.6 	39
15.66 	43
15.72 	41
15.78 	53
15.84 	44
15.9 	51
15.96 	35
16.02 	43
16.08 	49
16.14 	56
16.2 	36
16.26 	54
16.32 	44
16.38 	50
16.44 	39
16.5 	41
16.56 	42
16.62 	46
16.68 	50
16.74 	45
16.8 	46
16.86 	46
16.92 	34
16.98 	33
17.04 	38
17.1 	30
17.16 	28
17.22 	46
17.28 	44
17.34 	47
17.4 	30
17.46 	28
17.52 	26
17.58 	19
17.64 	19
17.7 	36
17.76 	20
17.82 	23
17.88 	25
17.94 	24
18 	20
18.06 	19
18.12 	20
18.18 	25
18.24 	22
18.3 	23
18.36 	17
18.42 	18
18.48 	33
18.54 	17
18.6 	20
18.66 	25
18.72 	26
18.78 	26
18.84 	25
18.9 	27
18.96 	19
19.02 	23
19.08 	28
19.14 	24
19.2 	19
19.26 	26
19.32 	27
19.38 	21
19.44 	28
19.5 	34
19.56 	20
19.62 	26
19.68 	29
19.74 	25
19.8 	20
19.86 	20
19.92 	19
19.98 	23
20.04 	41
20.1 	29
20.16 	24
20.22 	33
20.28 	35
20.34 	21
20.4 	16
20.46 	24
20.52 	33
20.58 	33
20.64 	27
20.7 	17
20.76 	27
20.82 	30
20.88 	32
20.94 	38
21 	24
21.06 	24
21.12 	25
21.18 	29
21.24 	29
21.3 	33
21.36 	24
21.42 	32
21.48 	22
21.54 	33
21.6 	34
21.66 	21
21.72 	23
21.78 	24
21.84 	38
21.9 	24
21.96 	22
22.02 	30
22.08 	31
22.14 	25
22.2 	28
22.26 	29
22.32 	29
22.38 	29
22.44 	27
22.5 	29
22.56 	20
22.62 	23
22.68 	24
22.74 	32
22.8 	21
22.86 	20
22.92 	24
22.98 	26
23.04 	23
23.1 	20
23.16 	31
23.22 	39
23.28 	30
23.34 	18
23.4 	20
23.46 	27
23.52 	21
23.58 	15
23.64 	20
23.7 	18
23.76 	28
23.82 	25
23.88 	18
23.94 	23
24 	18
24.06 	19
24.12 	21
24.18 	34
24.24 	15
24.3 	11
24.36 	23
24.42 	12
24.48 	23
24.54 	25
24.6 	20
24.66 	22
24.72 	24
24.78 	20
24.84 	19
24.9 	22
24.96 	19
25.02 	24
25.08 	10
25.14 	20
25.2 	17
25.26 	21
25.32 	26
25.38 	17
25.44 	22
25.5 	23
25.56 	11
25.62 	21
25.68 	21
25.74 	12
25.8 	14
25.86 	13
25.92 	23
25.98 	22
26.04 	12
26.1 	15
26.16 	16
26.22 	20
26.28 	25
26.34 	19
26.4 	20
26.46 	12
26.52 	19
26.58 	23
26.64 	24
26.7 	23
26.76 	16
26.82 	13
26.88 	20
26.94 	13
27 	26
27.06 	20
27.12 	22
27.18 	21
27.24 	18
27.3 	20
27.36 	23
27.42 	16
27.48 	17
27.54 	11
27.6 	16
27.66 	15
27.72 	20
27.78 	18
27.84 	15
27.9 	11
27.96 	19
28.02 	13
28.08 	15
28.14 	15
28.2 	24
28.26 	24
28.32 	18
28.38 	19
28.44 	17
28.5 	25
28.56 	18
28.62 	11
28.68 	11
28.74 	18
28.8 	17
28.86 	12
28.92 	14
28.98 	20
29.04 	12
29.1 	19
29.16 	28
29.22 	25
29.28 	34
29.34 	25
29.4 	20
29.46 	26
29.52 	30
29.58 	21
29.64 	18
29.7 	16
29.76 	19
29.82 	21
29.88 	19
29.94 	22
30 	13
30.06 	22
30.12 	29
30.18 	22
30.24 	16
30.3 	17
30.36 	26
30.42 	17
30.48 	20
30.54 	24
30.6 	11
30.66 	14
30.72 	23
30.78 	24
30.84 	15
30.9 	17
30.96 	18
31.02 	8
31.08 	23
31.14 	20
31.2 	22
31.26 	14
31.32 	11
31.38 	21
31.44 	14
31.5 	15
31.56 	16
31.62 	15
31.68 	23
31.74 	13
31.8 	13
31.86 	18
31.92 	16
31.98 	17
32.04 	16
32.1 	11
32.16 	23
32.22 	17
32.28 	17
32.34 	19
32.4 	14
32.46 	13
32.52 	17
32.58 	13
32.64 	13
32.7 	20
32.76 	25
32.82 	22
32.88 	14
32.94 	18
33 	13
33.06 	21
33.12 	12
33.18 	14
33.24 	11
33.3 	23
33.36 	23
33.42 	13
33.48 	20
33.54 	13
33.6 	21
33.66 	16
33.72 	21
33.78 	15
33.84 	17
33.9 	25
33.96 	17
34.02 	12
34.08 	16
34.14 	15
34.2 	17
34.26 	15
34.32 	20
34.38 	14
34.44 	29
34.5 	18
34.56 	22
34.62 	21
34.68 	10
34.74 	15
34.8 	12
34.86 	23
34.92 	15
34.98 	19
35.04 	13
35.1 	29
35.16 	30
35.22 	25
35.28 	30
35.34 	35
35.4 	27
35.46 	21
35.52 	25
35.58 	22
35.64 	23
35.7 	20
35.76 	15
35.82 	21
35.88 	10
35.94 	21
36 	21
36.06 	16
36.12 	14
36.18 	22
36.24 	20
36.3 	17
36.36 	16
36.42 	14
36.48 	14
36.54 	13
36.6 	10
36.66 	14
36.72 	24
36.78 	14
36.84 	14
36.9 	22
36.96 	18
37.02 	23
37.08 	26
37.14 	23
37.2 	26
37.26 	24
37.32 	15
37.38 	18
37.44 	22
37.5 	26
37.56 	30
37.62 	37
37.68 	26
37.74 	28
37.8 	23
37.86 	29
37.92 	33
37.98 	39
38.04 	64
38.1 	95
38.16 	242
38.22 	618
38.28 	1054
38.34 	931
38.4 	766
38.46 	400
38.52 	217
38.58 	105
38.64 	77
38.7 	39
38.76 	40
38.82 	37
38.88 	35
38.94 	19
39 	30
39.06 	33
39.12 	37
39.18 	23
39.24 	18
39.3 	22
39.36 	29
39.42 	27
39.48 	33
39.54 	26
39.6 	17
39.66 	28
39.72 	25
39.78 	34
39.84 	26
39.9 	28
39.96 	42
40.02 	36
40.08 	39
40.14 	27
40.2 	32
40.26 	59
40.32 	74
40.38 	90
40.44 	116
40.5 	119
40.56 	101
40.62 	78
40.68 	44
40.74 	35
40.8 	33
40.86 	39
40.92 	34
40.98 	29
41.04 	34
41.1 	22
41.16 	35
41.22 	29
41.28 	19
41.34 	18
41.4 	14
41.46 	25
41.52 	18
41.58 	26
41.64 	14
41.7 	24
41.76 	16
41.82 	12
41.88 	16
41.94 	15
42 	6
42.06 	12
42.12 	20
42.18 	17
42.24 	19
42.3 	18
42.36 	16
42.42 	18
42.48 	16
42.54 	16
42.6 	10
42.66 	14
42.72 	17
42.78 	23
42.84 	17
42.9 	23
42.96 	18
43.02 	25
43.08 	26
43.14 	17
43.2 	27
43.26 	21
43.32 	22
43.38 	19
43.44 	19
43.5 	19
43.56 	26
43.62 	26
43.68 	25
43.74 	28
43.8 	28
43.86 	39
43.92 	42
43.98 	32
44.04 	34
44.1 	42
44.16 	39
44.22 	50
44.28 	62
44.34 	97
44.4 	194
44.46 	506
44.52 	714
44.58 	831
44.64 	686
44.7 	390
44.76 	215
44.82 	90
44.88 	52
44.94 	41
45 	37
45.06 	20
45.12 	26
45.18 	22
45.24 	26
45.3 	18
45.36 	22
45.42 	25
45.48 	30
45.54 	16
45.6 	14
45.66 	22
45.72 	22
45.78 	15
45.84 	23
45.9 	30
45.96 	17
46.02 	18
46.08 	17
46.14 	11
46.2 	19
46.26 	24
46.32 	16
46.38 	24
46.44 	23
46.5 	14
46.56 	13
46.62 	16
46.68 	21
46.74 	17
46.8 	11
46.86 	14
46.92 	11
46.98 	27
47.04 	24
47.1 	11
47.16 	25
47.22 	16
47.28 	15
47.34 	19
47.4 	22
47.46 	15
47.52 	9
47.58 	16
47.64 	10
47.7 	16
47.76 	18
47.82 	14
47.88 	18
47.94 	20
48 	17
48.06 	10
48.12 	18
48.18 	24
48.24 	20
48.3 	8
48.36 	12
48.42 	14
48.48 	13
48.54 	14
48.6 	17
48.66 	26
48.72 	5
48.78 	12
48.84 	11
48.9 	14
48.96 	8
49.02 	9
49.08 	15
49.14 	18
49.2 	13
49.26 	13
49.32 	15
49.38 	13
49.44 	15
49.5 	9
49.56 	15
49.62 	16
49.68 	11
49.74 	19
49.8 	20
49.86 	15
49.92 	12
49.98 	10
50.04 	12
50.1 	14
50.16 	21
50.22 	16
50.28 	11
50.34 	14
50.4 	13
50.46 	18
50.52 	17
50.58 	10
50.64 	11
50.7 	14
50.76 	13
50.82 	18
50.88 	16
50.94 	14
51 	9
51.06 	13
51.12 	13
51.18 	16
51.24 	15
51.3 	14
51.36 	12
51.42 	15
51.48 	12
51.54 	14
51.6 	19
51.66 	13
51.72 	11
51.78 	17
51.84 	17
51.9 	11
51.96 	10
52.02 	15
52.08 	13
52.14 	15
52.2 	13
52.26 	8
52.32 	15
52.38 	19
52.44 	13
52.5 	21
52.56 	19
52.62 	14
52.68 	10
52.74 	12
52.8 	19
52.86 	11
52.92 	19
52.98 	15
53.04 	20
53.1 	23
53.16 	30
53.22 	25
53.28 	43
53.34 	35
53.4 	28
53.46 	29
53.52 	11
53.58 	18
53.64 	19
53.7 	14
53.76 	11
53.82 	14
53.88 	16
53.94 	15
54 	12
54.06 	17
54.12 	14
54.18 	6
54.24 	18
54.3 	17
54.36 	14
54.42 	13
54.48 	16
54.54 	17
54.6 	17
54.66 	10
54.72 	14
54.78 	8
54.84 	18
54.9 	9
54.96 	11
55.02 	14
55.08 	9
55.14 	12
55.2 	20
55.26 	14
55.32 	14
55.38 	21
55.44 	16
55.5 	15
55.56 	6
55.62 	15
55.68 	15
55.74 	10
55.8 	13
55.86 	13
55.92 	17
55.98 	18
56.04 	13
56.1 	15
56.16 	14
56.22 	9
56.28 	16
56.34 	12
56.4 	15
56.46 	5
56.52 	15
56.58 	21
56.64 	14
56.7 	9
56.76 	14
56.82 	16
56.88 	14
56.94 	11
57 	12
57.06 	16
57.12 	12
57.18 	16
57.24 	12
57.3 	19
57.36 	10
57.42 	11
57.48 	16
57.54 	12
57.6 	11
57.66 	13
57.72 	16
57.78 	14
57.84 	7
57.9 	16
57.96 	13
58.02 	11
58.08 	13
58.14 	17
58.2 	12
58.26 	10
58.32 	11
58.38 	15
58.44 	18
58.5 	8
58.56 	15
58.62 	15
58.68 	9
58.74 	12
58.8 	12
58.86 	12
58.92 	8
58.98 	12
59.04 	10
59.1 	9
59.16 	12
59.22 	11
59.28 	9
59.34 	13
59.4 	17
59.46 	14
59.52 	11
59.58 	10
59.64 	15
59.7 	13
59.76 	9
59.82 	11
59.88 	12
59.94 	12
60 	16
60.06 	15
60.12 	11
60.18 	13
60.24 	9
60.3 	14
60.36 	13
60.42 	7
60.48 	11
60.54 	13
60.6 	12
60.66 	17
60.72 	17
60.78 	8
60.84 	10
60.9 	10
60.96 	12
61.02 	15
61.08 	13
61.14 	16
61.2 	13
61.26 	11
61.32 	10
61.38 	13
61.44 	16
61.5 	7
61.56 	11
61.62 	14
61.68 	17
61.74 	10
61.8 	6
61.86 	10
61.92 	10
61.98 	13
62.04 	8
62.1 	14
62.16 	11
62.22 	7
62.28 	13
62.34 	17
62.4 	8
62.46 	15
62.52 	22
62.58 	12
62.64 	9
62.7 	15
62.76 	19
62.82 	19
62.88 	13
62.94 	11
63 	14
63.06 	12
63.12 	12
63.18 	16
63.24 	17
63.3 	20
63.36 	14
63.42 	14
63.48 	20
63.54 	32
63.6 	28
63.66 	24
63.72 	20
63.78 	17
63.84 	16
63.9 	22
63.96 	18
64.02 	18
64.08 	20
64.14 	19
64.2 	12
64.26 	26
64.32 	25
64.38 	24
64.44 	23
64.5 	17
64.56 	24
64.62 	20
64.68 	33
64.74 	49
64.8 	109
64.86 	263
64.92 	234
64.98 	182
65.04 	145
65.1 	132
65.16 	86
65.22 	30
65.28 	30
65.34 	25
65.4 	12
65.46 	19
65.52 	18
65.58 	16
65.64 	27
65.7 	7
65.76 	13
65.82 	15
65.88 	8
65.94 	14
66 	6
66.06 	13
66.12 	8
66.18 	15
66.24 	13
66.3 	25
66.36 	8
66.42 	6
66.48 	15
66.54 	11
66.6 	10
66.66 	16
66.72 	16
66.78 	9
66.84 	12
66.9 	9
66.96 	11
67.02 	17
67.08 	11
67.14 	10
67.2 	11
67.26 	10
67.32 	12
67.38 	9
67.44 	9
67.5 	14
67.56 	14
67.62 	7
67.68 	3
67.74 	13
67.8 	9
67.86 	8
67.92 	14
67.98 	8
68.04 	15
68.1 	11
68.16 	17
68.22 	10
68.28 	12
68.34 	9
68.4 	20
68.46 	13
68.52 	15
68.58 	13
68.64 	11
68.7 	17
68.76 	12
68.82 	13
68.88 	10
68.94 	13
69 	16
69.06 	19
69.12 	10
69.18 	7
69.24 	11
69.3 	11
69.36 	13
69.42 	9
69.48 	13
69.54 	16
69.6 	11
69.66 	13
69.72 	12
69.78 	16
69.84 	10
69.9 	4
69.96 	16
70.02 	8
70.08 	15
70.14 	10
70.2 	15
70.26 	8
70.32 	14
70.38 	18
70.44 	14
70.5 	17
70.56 	11
70.62 	12
70.68 	18
70.74 	12
70.8 	21
70.86 	19
70.92 	26
70.98 	30
71.04 	26
71.1 	31
71.16 	32
71.22 	28
71.28 	23
71.34 	21
71.4 	21
71.46 	25
71.52 	14
71.58 	12
71.64 	24
71.7 	14
71.76 	14
71.82 	11
71.88 	18
71.94 	9
72 	18
72.06 	9
72.12 	10
72.18 	14
72.24 	13
72.3 	15
72.36 	11
72.42 	13
72.48 	10
72.54 	12
72.6 	17
72.66 	17
72.72 	12
72.78 	17
72.84 	15
72.9 	14
72.96 	12
73.02 	14
73.08 	17
73.14 	13
73.2 	20
73.26 	17
73.32 	11
73.38 	10
73.44 	16
73.5 	14
73.56 	14
73.62 	14
73.68 	10
73.74 	13
73.8 	11
73.86 	9
73.92 	14
73.98 	13
74.04 	11
74.1 	13
74.16 	10
74.22 	12
74.28 	12
74.34 	14
74.4 	13
74.46 	10
74.52 	13
74.58 	15
74.64 	15
74.7 	19
74.76 	14
74.82 	12
74.88 	17
74.94 	20
75 	15
75.06 	11
75.12 	13
75.18 	16
75.24 	26
75.3 	16
75.36 	14
75.42 	10
75.48 	8
75.54 	8
75.6 	11
75.66 	10
75.72 	15
75.78 	11
75.84 	8
75.9 	13
75.96 	15
76.02 	13
76.08 	16
76.14 	22
76.2 	14
76.26 	16
76.32 	16
76.38 	12
76.44 	17
76.5 	19
76.56 	13
76.62 	21
76.68 	24
76.74 	27
76.8 	41
76.86 	29
76.92 	25
76.98 	16
77.04 	22
77.1 	14
77.16 	35
77.22 	26
77.28 	10
77.34 	9
77.4 	21
77.46 	18
77.52 	32
77.58 	20
77.64 	19
77.7 	41
77.76 	42
77.82 	73
77.88 	110
77.93999 	288
78 	402
78.06 	277
78.12 	211
78.18 	183
78.24 	221
78.3 	141
78.36 	76
78.42 	54
78.48 	38
78.54 	21
78.6 	25
78.66 	21
78.72 	16
78.78 	14
78.84 	13
78.9 	15
78.96 	15
79.02 	16
79.08 	21
79.14 	14
79.2 	14
79.26 	19
79.32 	11
79.38 	7
79.43999 	16
79.5 	8
79.56 	17
79.62 	14
79.68 	10
79.74 	14
79.8 	13
79.86 	15
79.92 	15
79.98 	14
80.04 	13
80.1 	10
80.16 	11
80.22 	13
80.28 	12
80.34 	10
80.4 	9
80.46 	10
80.52 	14
80.58 	11
80.64 	8
80.7 	7
80.76 	14
80.82 	15
80.88 	13
80.93999 	9
81 	11
81.06 	15
81.12 	12
81.18 	9
81.24 	21
81.3 	11
81.36 	11
81.42 	11
81.48 	12
81.54 	10
81.6 	14
81.66 	8
81.72 	12
81.78 	12
81.84 	13
81.9 	15
81.96 	21
82.02 	23
82.08 	39
82.14 	88
82.2 	121
82.26 	75
82.32 	57
82.38 	65
82.43999 	53
82.5 	48
82.56 	40
82.62 	22
82.68 	18
82.74 	12
82.8 	9
82.86 	13
82.92 	14
82.98 	15
83.04 	18
83.1 	10
83.16 	13
83.22 	19
83.28 	10
83.34 	15
83.4 	9
83.46 	12
83.52 	15
83.58 	12
83.64 	9
83.7 	18
83.76 	13
83.82 	12
83.88 	19
83.93999 	17
84 	15
84.06 	16
84.12 	13
84.18 	19
84.24 	12
84.3 	15
84.36 	6
84.42 	12
84.48 	13
84.54 	14
84.6 	14
84.66 	11
84.72 	10
84.78 	14
84.84 	9
84.9 	8
84.96 	13
85.02 	10
85.08 	14
85.14 	9
85.2 	11
85.26 	11
85.32 	12
85.38 	17
85.43999 	6
85.5 	11
85.56 	5
85.62 	8
85.68 	9
85.74 	16
85.8 	8
85.86 	17
85.92 	8
85.98 	16
86.04 	6
86.1 	11
86.16 	6
86.22 	12
86.28 	10
86.34 	15
86.4 	10
86.46 	18
86.52 	7
86.58 	8
86.64 	7
86.7 	14
86.76 	9
86.82 	9
86.88 	5
86.93999 	8
87 	16
87.06 	6
87.12 	9
87.18 	13
87.24 	8
87.3 	9
87.36 	14
87.42 	10
87.48 	21
87.54 	6
87.6 	12
87.66 	15
87.72 	8
87.78 	9
87.84 	13
87.9 	13
87.96 	7
88.02 	14
88.08 	20
88.14 	14
88.2 	7
88.26 	8
88.32 	12
88.38 	11
88.43999 	8
88.5 	5
88.56 	11
88.62 	8
88.68 	14
88.74 	6
88.8 	7
88.86 	13
88.92 	11
88.98 	12
89.04 	11
89.1 	10
89.16 	7
89.22 	12
89.28 	9
89.34 	11
89.4 	15
89.46 	5
89.52 	12
89.58 	6
89.64 	13
89.7 	9
89.76 	10
89.82 	10
89.88 	12
89.93999 	13
90 	5