File: XRD/H900.asc
15 	53
15.06 	62
15.12 	47
15.18 	58
15.24 	70
15.3 	59
15.36 	46
15.42 	39
15.48 	70
15.54 	61
15.6 	71
15.66 	65
15.72 	77
15.78 	73
15.84 	63
15.9 	72
15.96 	81
16.02 	80
16.08 	80
16.14 	78
16.2 	60
16.26 	65
16.32 	87
16.38 	68
16.44 	63
16.5 	68
16.56 	71
16.62 	71
16.68 	62
16.74 	55
16.8 	65
16.86 	50
16.92 	58
16.98 	67
17.04 	58
17.1 	59
17.16 	62
17.22 	48
17.28 	54
17.34 	62
17.4 	57
17.46 	59
17.52 	46
17.58 	40
17.64 	36
17.7 	39
17.76 	43
17.82 	35
17.88 	34
17.94 	26
18 	39
18.06 	28
18.12 	28
18.18 	34
18.24 	38
18.3 	38
18.36 	31
18.42 	35
18.48 	24
18.54 	26
18.6 	27
18.66 	33
18.72 	34
18.78 	23
18.84 	28
18.9 	28
18.96 	27
19.02 	31
19.08 	28
19.14 	28
19.2 	37
19.26 	32
19.32 	24
19.38 	34
19.44 	27
19.5 	34
19.56 	28
19.62 	33
19.68 	27
19.74 	39
19.8 	36
19.86 	22
19.92 	33
19.98 	36
20.04 	30
20.1 	30
20.16 	35
20.22 	45
20.28 	44
20.34 	30
20.4 	32
20.46 	34
20.52 	45
20.58 	52
20.64 	31
20.7 	44
20.76 	27
20.82 	40
20.88 	36
20.94 	40
21 	27
21.06 	30
21.12 	40
21.18 	34
21.24 	24
21.3 	23
21.36 	34
21.42 	42
21.48 	45
21.54 	48
21.6 	41
21.66 	31
21.72 	36
21.78 	36
21.84 	34
21.9 	33
21.96 	37
22.02 	38
22.08 	43
22.14 	33
22.2 	31
22.26 	35
22.32 	36
22.38 	43
22.44 	47
22.5 	36
22.56 	46
22.62 	36
22.68 	38
22.74 	41
22.8 	39
22.86 	38
22.92 	28
22.98 	41
23.04 	27
23.1 	30
23.16 	34
23.22 	42
23.28 	32
23.34 	35
23.4 	35
23.46 	28
23.52 	32
23.58 	31
23.64 	28
23.7 	22
23.76 	22
23.82 	28
23.88 	32
23.94 	30
24 	29
24.06 	33
24.12 	30
24.18 	31
24.24 	27
24.3 	40
24.36 	42
24.42 	41
24.48 	26
24.54 	25
24.6 	22
24.66 	14
24.72 	27
24.78 	28
24.84 	25
24.9 	19
24.96 	29
25.02 	36
25.08 	33
25.14 	24
25.2 	28
25.26 	25
25.32 	27
25.38 	26
25.44 	35
25.5 	30
25.56 	29
25.62 	28
25.68 	23
25.74 	24
25.8 	35
25.86 	27
25.92 	25
25.98 	29
26.04 	22
26.1 	33
26.16 	30
26.22 	30
26.28 	27
26.34 	25
26.4 	21
26.46 	24
26.52 	23
26.58 	23
26.64 	23
26.7 	29
26.76 	30
26.82 	18
26.88 	29
26.94 	18
27 	21
27.06 	21
27.12 	31
27.18 	25
27.24 	22
27.3 	24
27.36 	20
27.42 	31
27.48 	16
27.54 	20
27.6 	23
27.66 	27
27.72 	19
27.78 	21
27.84 	29
27.9 	25
27.96 	20
28.02 	28
28.08 	33
28.14 	19
28.2 	28
28.26 	23
28.32 	32
28.38 	15
28.44 	28
28.5 	32
28.56 	25
28.62 	27
28.68 	32
28.74 	28
28.8 	31
28.86 	29
28.92 	20
28.98 	22
29.04 	24
29.1 	22
29.16 	23
29.22 	20
29.28 	24
29.34 	18
29.4 	24
29.46 	25
29.52 	25
29.58 	29
29.64 	26
29.7 	35
29.76 	25
29.82 	35
29.88 	21
29.94 	29
30 	16
30.06 	22
30.12 	26
30.18 	16
30.24 	33
30.3 	18
30.36 	19
30.42 	25
30.48 	22
30.54 	20
30.6 	31
30.66 	25
30.72 	35
30.78 	30
30.84 	27
30.9 	26
30.96 	18
31.02 	20
31.08 	19
31.14 	33
31.2 	32
31.26 	27
31.32 	26
31.38 	17
31.44 	28
31.5 	19
31.56 	24
31.62 	23
31.68 	23
31.74 	16
31.8 	19
31.86 	28
31.92 	24
31.98 	25
32.04 	26
32.1 	17
32.16 	25
32.22 	25
32.28 	28
32.34 	18
32.4 	20
32.46 	25
32.52 	21
32.58 	23
32.64 	23
32.7 	25
32.76 	30
32.82 	23
32.88 	20
32.94 	20
33 	13
33.06 	19
33.12 	18
33.18 	28
33.24 	27
33.3 	21
33.36 	17
33.42 	30
33.48 	23
33.54 	25
33.6 	26
33.66 	28
33.72 	21
33.78 	28
33.84 	21
33.9 	19
33.96 	28
34.02 	27
34.08 	29
34.14 	25
34.2 	21
34.26 	28
34.32 	25
34.38 	22
34.44 	22
34.5 	32
34.56 	23
34.62 	19
34.68 	29
34.74 	25
34.8 	28
34.86 	24
34.92 	25
34.98 	31
35.04 	21
35.1 	19
35.16 	38
35.22 	26
35.28 	34
35.34 	45
35.4 	49
35.46 	79
35.52 	54
35.58 	41
35.64 	43
35.7 	28
35.76 	34
35.82 	27
35.88 	23
35.94 	24
36 	15
36.06 	30
36.12 	28
36.18 	27
36.24 	26
36.3 	31
36.36 	23
36.42 	31
36.48 	28
36.54 	30
36.6 	19
36.66 	24
36.72 	12
36.78 	23
36.84 	20
36.9 	26
36.96 	28
37.02 	27
37.08 	22
37.14 	36
37.2 	31
37.26 	17
37.32 	25
37.38 	40
37.44 	21
37.5 	28
37.56 	24
37.62 	38
37.68 	31
37.74 	31
37.8 	29
37.86 	35
37.92 	28
37.98 	30
38.04 	30
38.1 	37
38.16 	56
38.22 	45
38.28 	85
38.34 	154
38.4 	404
38.46 	826
38.52 	1187
38.58 	906
38.64 	601
38.7 	292
38.76 	124
38.82 	99
38.88 	72
38.94 	45
39 	51
39.06 	54
39.12 	47
39.18 	36
39.24 	46
39.3 	48
39.36 	66
39.42 	43
39.48 	45
39.54 	40
39.6 	37
39.66 	40
39.72 	38
39.78 	45
39.84 	41
39.9 	43
39.96 	52
40.02 	60
40.08 	56
40.14 	67
40.2 	91
40.26 	105
40.32 	131
40.38 	175
40.44 	211
40.5 	249
40.56 	237
40.62 	165
40.68 	138
40.74 	77
40.8 	83
40.86 	45
40.92 	60
40.98 	44
41.04 	41
41.1 	37
41.16 	31
41.22 	35
41.28 	35
41.34 	27
41.4 	34
41.46 	31
41.52 	22
41.58 	29
41.64 	28
41.7 	26
41.76 	26
41.82 	29
41.88 	27
41.94 	22
42 	19
42.06 	27
42.12 	33
42.18 	34
42.24 	23
42.3 	27
42.36 	24
42.42 	21
42.48 	22
42.54 	28
42.6 	27
42.66 	28
42.72 	44
42.78 	21
42.84 	24
42.9 	25
42.96 	27
43.02 	35
43.08 	27
43.14 	33
43.2 	41
43.26 	26
43.32 	33
43.38 	19
43.44 	32
43.5 	25
43.56 	27
43.62 	24
43.68 	31
43.74 	30
43.8 	21
43.86 	42
43.92 	26
43.98 	21
44.04 	22
44.1 	20
44.16 	36
44.22 	30
44.28 	32
44.34 	41
44.4 	41
44.46 	58
44.52 	96
44.58 	181
44.64 	331
44.7 	604
44.76 	758
44.82 	559
44.88 	414
44.94 	181
45 	74
45.06 	57
45.12 	50
45.18 	29
45.24 	18
45.3 	18
45.36 	29
45.42 	19
45.48 	29
45.54 	30
45.6 	23
45.66 	28
45.72 	25
45.78 	22
45.84 	21
45.9 	25
45.96 	23
46.02 	16
46.08 	25
46.14 	25
46.2 	19
46.26 	20
46.32 	18
46.38 	24
46.44 	22
46.5 	26
46.56 	31
46.62 	34
46.68 	33
46.74 	18
46.8 	17
46.86 	16
46.92 	33
46.98 	22
47.04 	18
47.1 	18
47.16 	35
47.22 	20
47.28 	23
47.34 	25
47.4 	29
47.46 	17
47.52 	16
47.58 	23
47.64 	17
47.7 	18
47.76 	23
47.82 	23
47.88 	15
47.94 	11
48 	18
48.06 	24
48.12 	19
48.18 	16
48.24 	29
48.3 	26
48.36 	20
48.42 	19
48.48 	21
48.54 	13
48.6 	20
48.66 	17
48.72 	16
48.78 	11
48.84 	10
48.9 	16
48.96 	13
49.02 	14
49.08 	17
49.14 	23
49.2 	20
49.26 	15
49.32 	14
49.38 	20
49.44 	14
49.5 	34
49.56 	17
49.62 	21
49.68 	19
49.74 	20
49.8 	23
49.86 	11
49.92 	13
49.98 	20
50.04 	16
50.1 	12
50.16 	16
50.22 	20
50.28 	27
50.34 	16
50.4 	13
50.46 	24
50.52 	14
50.58 	11
50.64 	16
50.7 	20
50.76 	17
50.82 	23
50.88 	22
50.94 	17
51 	28
51.06 	14
51.12 	22
51.18 	18
51.24 	21
51.3 	20
51.36 	14
51.42 	14
51.48 	20
51.54 	20
51.6 	25
51.66 	16
51.72 	18
51.78 	22
51.84 	19
51.9 	19
51.96 	13
52.02 	14
52.08 	20
52.14 	28
52.2 	15
52.26 	14
52.32 	24
52.38 	16
52.44 	18
52.5 	29
52.56 	21
52.62 	20
52.68 	20
52.74 	29
52.8 	19
52.86 	17
52.92 	18
52.98 	31
53.04 	23
53.1 	25
53.16 	26
53.22 	33
53.28 	41
53.34 	40
53.4 	41
53.46 	49
53.52 	38
53.58 	33
53.64 	38
53.7 	29
53.76 	22
53.82 	20
53.88 	21
53.94 	27
54 	22
54.06 	23
54.12 	21
54.18 	25
54.24 	22
54.3 	20
54.36 	13
54.42 	15
54.48 	16
54.54 	21
54.6 	13
54.66 	25
54.72 	14
54.78 	19
54.84 	23
54.9 	17
54.96 	13
55.02 	20
55.08 	22
55.14 	12
55.2 	15
55.26 	19
55.32 	23
55.38 	23
55.44 	16
55.5 	16
55.56 	13
55.62 	14
55.68 	21
55.74 	26
55.8 	14
55.86 	20
55.92 	21
55.98 	21
56.04 	17
56.1 	26
56.16 	18
56.22 	18
56.28 	19
56.34 	18
56.4 	18
56.46 	27
56.52 	18
56.58 	23
56.64 	24
56.7 	23
56.76 	22
56.82 	22
56.88 	18
56.94 	22
57 	21
57.06 	28
57.12 	21
57.18 	20
57.24 	16
57.3 	22
57.36 	11
57.42 	22
57.48 	16
57.54 	17
57.6 	19
57.66 	28
57.72 	13
57.78 	26
57.84 	15
57.9 	19
57.96 	19
58.02 	18
58.08 	28
58.14 	24
58.2 	14
58.26 	23
58.32 	21
58.38 	15
58.44 	20
58.5 	16
58.56 	14
58.62 	20
58.68 	25
58.74 	15
58.8 	14
58.86 	18
58.92 	29
58.98 	21
59.04 	15
59.1 	16
59.16 	22
59.22 	20
59.28 	23
59.34 	16
59.4 	16
59.46 	16
59.52 	30
59.58 	20
59.64 	20
59.7 	11
59.76 	16
59.82 	19
59.88 	10
59.94 	13
60 	25
60.06 	14
60.12 	21
60.18 	18
60.24 	17
60.3 	21
60.36 	12
60.42 	20
60.48 	16
60.54 	15
60.6 	18
60.66 	15
60.72 	17
60.78 	18
60.84 	14
60.9 	16
60.96 	22
61.02 	22
61.08 	18
61.14 	12
61.2 	16
61.26 	17
61.32 	15
61.38 	18
61.44 	23
61.5 	16
61.56 	14
61.62 	24
61.68 	26
61.74 	18
61.8 	19
61.86 	15
61.92 	13
61.98 	16
62.04 	22
62.1 	19
62.16 	20
62.22 	18
62.28 	16
62.34 	23
62.4 	18
62.46 	28
62.52 	20
62.58 	18
62.64 	8
62.7 	21
62.76 	18
62.82 	23
62.88 	16
62.94 	20
63 	17
63.06 	25
63.12 	21
63.18 	26
63.24 	33
63.3 	20
63.36 	24
63.42 	26
63.48 	31
63.54 	43
63.6 	36
63.66 	43
63.72 	26
63.78 	26
63.84 	26
63.9 	23
63.96 	26
64.02 	22
64.08 	14
64.14 	22
64.2 	29
64.26 	17
64.32 	12
64.38 	17
64.44 	22
64.5 	21
64.56 	27
64.62 	25
64.68 	21
64.74 	24
64.8 	23
64.86 	47
64.92 	44
64.98 	107
65.04 	209
65.1 	209
65.16 	124
65.22 	161
65.28 	123
65.34 	81
65.4 	43
65.46 	28
65.52 	27
65.58 	22
65.64 	23
65.7 	13
65.76 	19
65.82 	25
65.88 	22
65.94 	15
66 	16
66.06 	15
66.12 	24
66.18 	18
66.24 	17
66.3 	25
66.36 	22
66.42 	26
66.48 	16
66.54 	19
66.6 	23
66.66 	20
66.72 	12
66.78 	21
66.84 	23
66.9 	16
66.96 	12
67.02 	17
67.08 	21
67.14 	19
67.2 	20
67.26 	25
67.32 	21
67.38 	12
67.44 	20
67.5 	22
67.56 	19
67.62 	15
67.68 	16
67.74 	13
67.8 	18
67.86 	17
67.92 	11
67.98 	14
68.04 	16
68.1 	16
68.16 	16
68.22 	19
68.28 	15
68.34 	18
68.4 	20
68.46 	15
68.52 	16
68.58 	20
68.64 	17
68.7 	9
68.76 	16
68.82 	12
68.88 	19
68.94 	16
69 	22
69.06 	21
69.12 	18
69.18 	20
69.24 	18
69.3 	17
69.36 	13
69.42 	16
69.48 	19
69.54 	16
69.6 	15
69.66 	25
69.72 	20
69.78 	10
69.84 	24
69.9 	22
69.96 	20
70.02 	16
70.08 	14
70.14 	19
70.2 	14
70.26 	26
70.32 	17
70.38 	20
70.44 	24
70.5 	19
70.56 	30
70.62 	23
70.68 	28
70.74 	28
70.8 	29
70.86 	43
70.92 	37
70.98 	40
71.04 	40
71.1 	48
71.16 	42
71.22 	50
71.28 	34
71.34 	41
71.4 	21
71.46 	21
71.52 	31
71.58 	28
71.64 	21
71.7 	22
71.76 	19
71.82 	21
71.88 	24
71.94 	23
72 	24
72.06 	25
72.12 	11
72.18 	22
72.24 	19
72.3 	16
72.36 	13
72.42 	22
72.48 	14
72.54 	16
72.6 	14
72.66 	15
72.72 	20
72.78 	14
72.84 	24
72.9 	30
72.96 	25
73.02 	15
73.08 	17
73.14 	15
73.2 	18
73.26 	16
73.32 	17
73.38 	19
73.44 	16
73.5 	19
73.56 	23
73.62 	19
73.68 	20
73.74 	21
73.8 	19
73.86 	13
73.92 	11
73.98 	21
74.04 	19
74.1 	20
74.16 	13
74.22 	28
74.28 	18
74.34 	13
74.4 	14
74.46 	22
74.52 	29
74.58 	24
74.64 	22
74.7 	22
74.76 	25
74.82 	16
74.88 	22
74.94 	26
75 	29
75.06 	17
75.12 	19
75.18 	15
75.24 	14
75.3 	13
75.36 	20
75.42 	23
75.48 	15
75.54 	29
75.6 	17
75.66 	28
75.72 	25
75.78 	21
75.84 	16
75.9 	29
75.96 	35
76.02 	21
76.08 	24
76.14 	28
76.2 	31
76.26 	31
76.32 	27
76.38 	36
76.44 	31
76.5 	31
76.56 	42
76.62 	37
76.68 	37
76.74 	41
76.8 	36
76.86 	40
76.92 	41
76.98 	45
77.04 	38
77.1 	28
77.16 	33
77.22 	43
77.28 	28
77.34 	24
77.4 	32
77.46 	29
77.52 	43
77.58 	34
77.64 	28
77.7 	41
77.76 	48
77.82 	37
77.88 	59
77.93999 	70
78 	109
78.06 	182
78.12 	316
78.18 	387
78.24 	255
78.3 	197
78.36 	241
78.42 	210
78.48 	134
78.54 	83
78.6 	49
78.66 	41
78.72 	42
78.78 	23
78.84 	26
78.9 	30
78.96 	23
79.02 	22
79.08 	27
79.14 	25
79.2 	21
79.26 	22
79.32 	21
79.38 	24
79.43999 	19
79.5 	20
79.56 	23
79.62 	23
79.68 	25
79.74 	20
79.8 	25
79.86 	33
79.92 	16
79.98 	16
80.04 	17
80.1 	22
80.16 	22
80.22 	28
80.28 	14
80.34 	16
80.4 	23
80.46 	18
80.52 	14
80.58 	12
80.64 	13
80.7 	25
80.76 	15
80.82 	27
80.88 	14
80.93999 	19
81 	14
81.06 	17
81.12 	20
81.18 	17
81.24 	24
81.3 	16
81.36 	20
81.42 	15
81.48 	10
81.54 	18
81.6 	18
81.66 	17
81.72 	18
81.78 	22
81.84 	19
81.9 	26
81.96 	26
82.02 	27
82.08 	28
82.14 	30
82.2 	34
82.26 	63
82.32 	104
82.38 	117
82.43999 	76
82.5 	74
82.56 	75
82.62 	91
82.68 	76
82.74 	53
82.8 	42
82.86 	30
82.92 	21
82.98 	34
83.04 	27
83.1 	30
83.16 	22
83.22 	22
83.28 	14
83.34 	22
83.4 	16
83.46 	31
83.52 	19
83.58 	25
83.64 	22
83.7 	23
83.76 	19
83.82 	26
83.88 	13
83.93999 	17
84 	12
84.06 	14
84.12 	11
84.18 	19
84.24 	18
84.3 	23
84.36 	15
84.42 	21
84.48 	14
84.54 	16
84.6 	9
84.66 	20
84.72 	23
84.78 	21
84.84 	16
84.9 	21
84.96 	9
85.02 	14
85.08 	27
85.14 	15
85.2 	15
85.26 	25
85.32 	15
85.38 	21
85.43999 	16
85.5 	16
85.56 	26
85.62 	16
85.68 	13
85.74 	26
85.8 	22
85.86 	22
85.92 	18
85.98 	19
86.04 	24
86.1 	13
86.16 	18
86.22 	14
86.28 	14
86.34 	17
86.4 	16
86.46 	22
86.52 	17
86.58 	14
86.64 	23
86.7 	17
86.76 	17
86.82 	15
86.88 	12
86.93999 	20
87 	12
87.06 	16
87.12 	16
87.18 	22
87.24 	23
87.3 	23
87.36 	19
87.42 	15
87.48 	25
87.54 	11
87.6 	19
87.66 	24
87.72 	12
87.78 	14
87.84 	17
87.9 	18
87.96 	22
88.02 	17
88.08 	11
88.14 	17
88.2 	18
88.26 	16
88.32 	16
88.38 	22
88.43999 	22
88.5 	17
88.56 	20
88.62 	19
88.68 	20
88.74 	23
88.8 	18
88.86 	15
88.92 	20
88.98 	15
89.04 	18
89.1 	16
89.16 	18
89.22 	21
89.28 	14
89.34 	14
89.4 	20
89.46 	14
89.52 	18
89.58 	26
89.64 	19
89.7 	21
89.76 	24
89.82 	17
89.88 	12
89.93999 	20
90 	15