File: XRD/P-560.asc
15 	28
15.06 	37
15.12 	51
15.18 	49
15.24 	46
15.3 	54
15.36 	58
15.42 	50
15.48 	44
15.54 	47
15.6 	53
15.66 	46
15.72 	56
15.78 	45
15.84 	48
15.9 	61
15.96 	55
16.02 	41
16.08 	50
16.14 	48
16.2 	44
16.26 	55
16.32 	37
16.38 	56
16.44 	51
16.5 	69
16.56 	51
16.62 	60
16.68 	63
16.74 	51
16.8 	46
16.86 	62
16.92 	49
16.98 	52
17.04 	55
17.1 	58
17.16 	49
17.22 	57
17.28 	38
17.34 	48
17.4 	41
17.46 	30
17.52 	35
17.58 	30
17.64 	24
17.7 	40
17.76 	35
17.82 	31
17.88 	24
17.94 	25
18 	25
18.06 	30
18.12 	15
18.18 	30
18.24 	38
18.3 	29
18.36 	26
18.42 	31
18.48 	27
18.54 	33
18.6 	31
18.66 	33
18.72 	22
18.78 	25
18.84 	35
18.9 	20
18.96 	32
19.02 	31
19.08 	17
19.14 	25
19.2 	34
19.26 	31
19.32 	20
19.38 	23
19.44 	37
19.5 	27
19.56 	39
19.62 	29
19.68 	38
19.74 	28
19.8 	19
19.86 	34
19.92 	27
19.98 	32
20.04 	24
20.1 	36
20.16 	47
20.22 	36
20.28 	31
20.34 	38
20.4 	37
20.46 	23
20.52 	36
20.58 	31
20.64 	30
20.7 	35
20.76 	35
20.82 	45
20.88 	29
20.94 	43
21 	33
21.06 	39
21.12 	39
21.18 	43
21.24 	38
21.3 	31
21.36 	38
21.42 	43
21.48 	35
21.54 	32
21.6 	33
21.66 	28
21.72 	46
21.78 	42
21.84 	32
21.9 	34
21.96 	33
22.02 	39
22.08 	41
22.14 	39
22.2 	37
22.26 	35
22.32 	33
22.38 	30
22.44 	45
22.5 	34
22.56 	37
22.62 	44
22.68 	49
22.74 	37
22.8 	47
22.86 	40
22.92 	44
22.98 	33
23.04 	37
23.1 	36
23.16 	31
23.22 	28
23.28 	41
23.34 	38
23.4 	34
23.46 	24
23.52 	30
23.58 	33
23.64 	39
23.7 	25
23.76 	44
23.82 	40
23.88 	39
23.94 	36
24 	32
24.06 	29
24.12 	23
24.18 	29
24.24 	21
24.3 	28
24.36 	31
24.42 	35
24.48 	35
24.54 	40
24.6 	44
24.66 	32
24.72 	33
24.78 	28
24.84 	36
24.9 	28
24.96 	28
25.02 	35
25.08 	21
25.14 	36
25.2 	27
25.26 	37
25.32 	30
25.38 	37
25.44 	23
25.5 	25
25.56 	32
25.62 	41
25.68 	36
25.74 	32
25.8 	32
25.86 	33
25.92 	35
25.98 	23
26.04 	32
26.1 	32
26.16 	30
26.22 	34
26.28 	30
26.34 	42
26.4 	38
26.46 	31
26.52 	25
26.58 	28
26.64 	26
26.7 	33
26.76 	30
26.82 	23
26.88 	35
26.94 	38
27 	28
27.06 	28
27.12 	30
27.18 	34
27.24 	25
27.3 	23
27.36 	28
27.42 	30
27.48 	28
27.54 	31
27.6 	27
27.66 	23
27.72 	28
27.78 	27
27.84 	18
27.9 	31
27.96 	27
28.02 	30
28.08 	22
28.14 	28
28.2 	39
28.26 	17
28.32 	29
28.38 	28
28.44 	26
28.5 	18
28.56 	19
28.62 	21
28.68 	28
28.74 	36
28.8 	28
28.86 	25
28.92 	28
28.98 	27
29.04 	20
29.1 	29
29.16 	26
29.22 	34
29.28 	23
29.34 	32
29.4 	34
29.46 	19
29.52 	21
29.58 	28
29.64 	30
29.7 	24
29.76 	28
29.82 	21
29.88 	29
29.94 	24
30 	26
30.06 	29
30.12 	27
30.18 	29
30.24 	20
30.3 	23
30.36 	26
30.42 	36
30.48 	35
30.54 	23
30.6 	38
30.66 	21
30.72 	30
30.78 	18
30.84 	19
30.9 	35
30.96 	29
31.02 	19
31.08 	20
31.14 	21
31.2 	23
31.26 	17
31.32 	24
31.38 	36
31.44 	31
31.5 	25
31.56 	21
31.62 	38
31.68 	36
31.74 	29
31.8 	17
31.86 	24
31.92 	27
31.98 	22
32.04 	37
32.1 	29
32.16 	34
32.22 	28
32.28 	26
32.34 	19
32.4 	36
32.46 	21
32.52 	24
32.58 	31
32.64 	22
32.7 	22
32.76 	18
32.82 	19
32.88 	21
32.94 	30
33 	36
33.06 	25
33.12 	23
33.18 	31
33.24 	31
33.3 	28
33.36 	28
33.42 	21
33.48 	25
33.54 	25
33.6 	24
33.66 	21
33.72 	20
33.78 	25
33.84 	24
33.9 	16
33.96 	25
34.02 	16
34.08 	24
34.14 	34
34.2 	26
34.26 	24
34.32 	13
34.38 	21
34.44 	24
34.5 	30
34.56 	37
34.62 	41
34.68 	31
34.74 	29
34.8 	29
34.86 	33
34.92 	29
34.98 	28
35.04 	30
35.1 	37
35.16 	37
35.22 	63
35.28 	73
35.34 	67
35.4 	68
35.46 	63
35.52 	45
35.58 	43
35.64 	37
35.7 	34
35.76 	39
35.82 	27
35.88 	25
35.94 	31
36 	29
36.06 	27
36.12 	35
36.18 	21
36.24 	23
36.3 	33
36.36 	37
36.42 	26
36.48 	28
36.54 	34
36.6 	26
36.66 	21
36.72 	30
36.78 	27
36.84 	28
36.9 	26
36.96 	25
37.02 	27
37.08 	32
37.14 	28
37.2 	32
37.26 	23
37.32 	33
37.38 	28
37.44 	33
37.5 	26
37.56 	37
37.62 	30
37.68 	26
37.74 	29
37.8 	27
37.86 	36
37.92 	33
37.98 	25
38.04 	45
38.1 	47
38.16 	66
38.22 	108
38.28 	186
38.34 	516
38.4 	1086
38.46 	864
38.52 	681
38.58 	315
38.64 	179
38.7 	124
38.76 	95
38.82 	69
38.88 	54
38.94 	56
39 	53
39.06 	53
39.12 	52
39.18 	45
39.24 	49
39.3 	52
39.36 	53
39.42 	45
39.48 	52
39.54 	36
39.6 	41
39.66 	47
39.72 	56
39.78 	50
39.84 	60
39.9 	55
39.96 	90
40.02 	105
40.08 	141
40.14 	179
40.2 	212
40.26 	252
40.32 	349
40.38 	385
40.44 	435
40.5 	392
40.56 	308
40.62 	191
40.68 	162
40.74 	99
40.8 	79
40.86 	80
40.92 	72
40.98 	49
41.04 	49
41.1 	40
41.16 	40
41.22 	24
41.28 	35
41.34 	43
41.4 	33
41.46 	27
41.52 	41
41.58 	33
41.64 	31
41.7 	32
41.76 	33
41.82 	29
41.88 	41
41.94 	28
42 	23
42.06 	31
42.12 	40
42.18 	28
42.24 	28
42.3 	41
42.36 	29
42.42 	25
42.48 	31
42.54 	24
42.6 	32
42.66 	30
42.72 	30
42.78 	24
42.84 	38
42.9 	26
42.96 	29
43.02 	22
43.08 	20
43.14 	35
43.2 	33
43.26 	33
43.32 	29
43.38 	26
43.44 	39
43.5 	30
43.56 	28
43.62 	39
43.68 	16
43.74 	15
43.8 	20
43.86 	28
43.92 	26
43.98 	30
44.04 	29
44.1 	37
44.16 	39
44.22 	31
44.28 	41
44.34 	47
44.4 	71
44.46 	127
44.52 	276
44.58 	606
44.64 	979
44.7 	793
44.76 	618
44.82 	269
44.88 	109
44.94 	54
45 	46
45.06 	26
45.12 	39
45.18 	36
45.24 	38
45.3 	35
45.36 	28
45.42 	29
45.48 	22
45.54 	17
45.6 	30
45.66 	24
45.72 	27
45.78 	25
45.84 	26
45.9 	27
45.96 	21
46.02 	17
46.08 	21
46.14 	29
46.2 	26
46.26 	18
46.32 	30
46.38 	31
46.44 	26
46.5 	28
46.56 	33
46.62 	29
46.68 	23
46.74 	16
46.8 	14
46.86 	14
46.92 	20
46.98 	30
47.04 	15
47.1 	17
47.16 	28
47.22 	28
47.28 	18
47.34 	27
47.4 	14
47.46 	24
47.52 	19
47.58 	26
47.64 	18
47.7 	25
47.76 	25
47.82 	21
47.88 	17
47.94 	18
48 	26
48.06 	18
48.12 	22
48.18 	26
48.24 	23
48.3 	31
48.36 	20
48.42 	24
48.48 	20
48.54 	17
48.6 	27
48.66 	28
48.72 	19
48.78 	26
48.84 	17
48.9 	17
48.96 	22
49.02 	17
49.08 	17
49.14 	23
49.2 	25
49.26 	19
49.32 	23
49.38 	22
49.44 	19
49.5 	17
49.56 	16
49.62 	15
49.68 	16
49.74 	20
49.8 	22
49.86 	21
49.92 	21
49.98 	22
50.04 	13
50.1 	24
50.16 	22
50.22 	14
50.28 	17
50.34 	19
50.4 	17
50.46 	24
50.52 	18
50.58 	12
50.64 	20
50.7 	15
50.76 	18
50.82 	16
50.88 	20
50.94 	24
51 	19
51.06 	23
51.12 	17
51.18 	12
51.24 	16
51.3 	29
51.36 	14
51.42 	21
51.48 	22
51.54 	17
51.6 	21
51.66 	26
51.72 	18
51.78 	21
51.84 	15
51.9 	15
51.96 	19
52.02 	23
52.08 	13
52.14 	23
52.2 	17
52.26 	24
52.32 	15
52.38 	16
52.44 	23
52.5 	26
52.56 	22
52.62 	19
52.68 	16
52.74 	18
52.8 	23
52.86 	16
52.92 	27
52.98 	27
53.04 	40
53.1 	41
53.16 	57
53.22 	62
53.28 	68
53.34 	53
53.4 	61
53.46 	45
53.52 	25
53.58 	33
53.64 	20
53.7 	34
53.76 	22
53.82 	21
53.88 	22
53.94 	29
54 	16
54.06 	20
54.12 	24
54.18 	18
54.24 	13
54.3 	23
54.36 	16
54.42 	13
54.48 	10
54.54 	18
54.6 	20
54.66 	12
54.72 	17
54.78 	16
54.84 	17
54.9 	22
54.96 	11
55.02 	13
55.08 	24
55.14 	18
55.2 	20
55.26 	20
55.32 	17
55.38 	21
55.44 	17
55.5 	19
55.56 	14
55.62 	25
55.68 	13
55.74 	16
55.8 	21
55.86 	14
55.92 	13
55.98 	16
56.04 	20
56.1 	20
56.16 	19
56.22 	18
56.28 	21
56.34 	18
56.4 	13
56.46 	13
56.52 	16
56.58 	9
56.64 	20
56.7 	11
56.76 	18
56.82 	26
56.88 	16
56.94 	19
57 	15
57.06 	18
57.12 	20
57.18 	19
57.24 	13
57.3 	15
57.36 	21
57.42 	24
57.48 	16
57.54 	19
57.6 	19
57.66 	18
57.72 	18
57.78 	9
57.84 	19
57.9 	17
57.96 	20
58.02 	29
58.08 	13
58.14 	15
58.2 	17
58.26 	15
58.32 	18
58.38 	22
58.44 	16
58.5 	18
58.56 	15
58.62 	21
58.68 	19
58.74 	17
58.8 	13
58.86 	7
58.92 	11
58.98 	16
59.04 	12
59.1 	14
59.16 	13
59.22 	13
59.28 	18
59.34 	18
59.4 	23
59.46 	22
59.52 	17
59.58 	17
59.64 	19
59.7 	15
59.76 	14
59.82 	11
59.88 	19
59.94 	17
60 	13
60.06 	18
60.12 	22
60.18 	21
60.24 	18
60.3 	13
60.36 	15
60.42 	20
60.48 	25
60.54 	13
60.6 	18
60.66 	9
60.72 	17
60.78 	21
60.84 	16
60.9 	24
60.96 	14
61.02 	24
61.08 	20
61.14 	17
61.2 	20
61.26 	13
61.32 	13
61.38 	9
61.44 	21
61.5 	17
61.56 	14
61.62 	12
61.68 	19
61.74 	13
61.8 	7
61.86 	17
61.92 	24
61.98 	12
62.04 	18
62.1 	12
62.16 	20
62.22 	23
62.28 	20
62.34 	23
62.4 	14
62.46 	19
62.52 	20
62.58 	14
62.64 	22
62.7 	17
62.76 	9
62.82 	20
62.88 	24
62.94 	11
63 	16
63.06 	33
63.12 	22
63.18 	24
63.24 	32
63.3 	25
63.36 	37
63.42 	37
63.48 	50
63.54 	46
63.6 	33
63.66 	42
63.72 	36
63.78 	20
63.84 	41
63.9 	27
63.96 	21
64.02 	17
64.08 	24
64.14 	25
64.2 	18
64.26 	19
64.32 	21
64.38 	17
64.44 	25
64.5 	29
64.56 	25
64.62 	30
64.68 	46
64.74 	26
64.8 	53
64.86 	102
64.92 	206
64.98 	300
65.04 	264
65.1 	186
65.16 	174
65.22 	136
65.28 	87
65.34 	40
65.4 	26
65.46 	19
65.52 	17
65.58 	20
65.64 	19
65.7 	12
65.76 	12
65.82 	24
65.88 	12
65.94 	16
66 	20
66.06 	16
66.12 	14
66.18 	14
66.24 	20
66.3 	13
66.36 	16
66.42 	21
66.48 	17
66.54 	14
66.6 	11
66.66 	21
66.72 	18
66.78 	19
66.84 	18
66.9 	14
66.96 	16
67.02 	11
67.08 	21
67.14 	14
67.2 	18
67.26 	19
67.32 	20
67.38 	21
67.44 	24
67.5 	15
67.56 	27
67.62 	13
67.68 	13
67.74 	14
67.8 	13
67.86 	22
67.92 	11
67.98 	18
68.04 	17
68.1 	18
68.16 	27
68.22 	19
68.28 	22
68.34 	20
68.4 	19
68.46 	22
68.52 	16
68.58 	17
68.64 	22
68.7 	15
68.76 	22
68.82 	14
68.88 	17
68.94 	10
69 	19
69.06 	21
69.12 	18
69.18 	26
69.24 	16
69.3 	17
69.36 	21
69.42 	17
69.48 	22
69.54 	13
69.6 	26
69.66 	13
69.72 	8
69.78 	12
69.84 	22
69.9 	21
69.96 	18
70.02 	16
70.08 	15
70.14 	20
70.2 	21
70.26 	18
70.32 	21
70.38 	28
70.44 	32
70.5 	19
70.56 	27
70.62 	24
70.68 	33
70.74 	28
70.8 	41
70.86 	45
70.92 	48
70.98 	58
71.04 	52
71.1 	58
71.16 	59
71.22 	48
71.28 	48
71.34 	37
71.4 	28
71.46 	30
71.52 	20
71.58 	27
71.64 	24
71.7 	17
71.76 	18
71.82 	25
71.88 	19
71.94 	16
72 	19
72.06 	16
72.12 	17
72.18 	14
72.24 	16
72.3 	11
72.36 	8
72.42 	22
72.48 	14
72.54 	14
72.6 	17
72.66 	16
72.72 	23
72.78 	16
72.84 	16
72.9 	12
72.96 	19
73.02 	17
73.08 	19
73.14 	14
73.2 	17
73.26 	7
73.32 	20
73.38 	17
73.44 	19
73.5 	14
73.56 	20
73.62 	23
73.68 	8
73.74 	13
73.8 	13
73.86 	21
73.92 	23
73.98 	15
74.04 	17
74.1 	22
74.16 	16
74.22 	14
74.28 	25
74.34 	11
74.4 	16
74.46 	18
74.52 	21
74.58 	14
74.64 	17
74.7 	20
74.76 	24
74.82 	16
74.88 	25
74.94 	18
75 	18
75.06 	11
75.12 	26
75.18 	17
75.24 	21
75.3 	19
75.36 	18
75.42 	10
75.48 	18
75.54 	23
75.6 	18
75.66 	16
75.72 	24
75.78 	22
75.84 	19
75.9 	20
75.96 	16
76.02 	16
76.08 	27
76.14 	19
76.2 	18
76.26 	19
76.32 	26
76.38 	22
76.44 	35
76.5 	29
76.56 	39
76.62 	45
76.68 	48
76.74 	53
76.8 	42
76.86 	53
76.92 	52
76.98 	49
77.04 	45
77.1 	36
77.16 	37
77.22 	24
77.28 	42
77.34 	25
77.4 	30
77.46 	23
77.52 	26
77.58 	40
77.64 	36
77.7 	51
77.76 	55
77.82 	58
77.88 	74
77.93999 	129
78 	224
78.06 	365
78.12 	406
78.18 	260
78.24 	209
78.3 	235
78.36 	207
78.42 	126
78.48 	59
78.54 	52
78.6 	33
78.66 	28
78.72 	22
78.78 	27
78.84 	33
78.9 	25
78.96 	20
79.02 	15
79.08 	15
79.14 	28
79.2 	21
79.26 	19
79.32 	16
79.38 	18
79.43999 	14
79.5 	17
79.56 	19
79.62 	19
79.68 	23
79.74 	14
79.8 	23
79.86 	16
79.92 	14
79.98 	19
80.04 	21
80.1 	11
80.16 	15
80.22 	11
80.28 	18
80.34 	23
80.4 	12
80.46 	16
80.52 	23
80.58 	19
80.64 	20
80.7 	15
80.76 	14
80.82 	15
80.88 	19
80.93999 	16
81 	17
81.06 	23
81.12 	19
81.18 	10
81.24 	16
81.3 	19
81.36 	8
81.42 	16
81.48 	21
81.54 	10
81.6 	25
81.66 	10
81.72 	17
81.78 	17
81.84 	22
81.9 	22
81.96 	22
82.02 	29
82.08 	28
82.14 	37
82.2 	47
82.26 	79
82.32 	86
82.38 	65
82.43999 	54
82.5 	66
82.56 	70
82.62 	41
82.68 	33
82.74 	19
82.8 	40
82.86 	21
82.92 	14
82.98 	20
83.04 	23
83.1 	12
83.16 	14
83.22 	13
83.28 	15
83.34 	10
83.4 	19
83.46 	16
83.52 	16
83.58 	19
83.64 	16
83.7 	19
83.76 	17
83.82 	23
83.88 	17
83.93999 	11
84 	22
84.06 	22
84.12 	12
84.18 	17
84.24 	15
84.3 	15
84.36 	15
84.42 	17
84.48 	18
84.54 	14
84.6 	16
84.66 	16
84.72 	15
84.78 	10
84.84 	17
84.9 	17
84.96 	20
85.02 	18
85.08 	18
85.14 	7
85.2 	13
85.26 	9
85.32 	26
85.38 	16
85.43999 	16
85.5 	13
85.56 	13
85.62 	13
85.68 	11
85.74 	13
85.8 	20
85.86 	11
85.92 	16
85.98 	20
86.04 	12
86.1 	16
86.16 	13
86.22 	14
86.28 	16
86.34 	13
86.4 	8
86.46 	14
86.52 	14
86.58 	14
86.64 	8
86.7 	16
86.76 	18
86.82 	14
86.88 	12
86.93999 	15
87 	15
87.06 	18
87.12 	11
87.18 	28
87.24 	21
87.3 	14
87.36 	20
87.42 	27
87.48 	25
87.54 	21
87.6 	23
87.66 	23
87.72 	23
87.78 	16
87.84 	16
87.9 	21
87.96 	16
88.02 	17
88.08 	7
88.14 	17
88.2 	15
88.26 	10
88.32 	22
88.38 	15
88.43999 	12
88.5 	17
88.56 	11
88.62 	12
88.68 	15
88.74 	14
88.8 	17
88.86 	15
88.92 	12
88.98 	14
89.04 	17
89.1 	14
89.16 	7
89.22 	11
89.28 	16
89.34 	16
89.4 	14
89.46 	13
89.52 	10
89.58 	18
89.64 	13
89.7 	16
89.76 	10
89.82 	14
89.88 	15
89.93999 	11
90 	16