File: XRD/P1120.asc
15 	43
15.06 	51
15.12 	44
15.18 	57
15.24 	53
15.3 	49
15.36 	50
15.42 	52
15.48 	41
15.54 	45
15.6 	64
15.66 	39
15.72 	52
15.78 	53
15.84 	53
15.9 	47
15.96 	62
16.02 	56
16.08 	57
16.14 	54
16.2 	46
16.26 	61
16.32 	48
16.38 	53
16.44 	60
16.5 	51
16.56 	46
16.62 	53
16.68 	54
16.74 	45
16.8 	48
16.86 	39
16.92 	38
16.98 	46
17.04 	67
17.1 	51
17.16 	42
17.22 	45
17.28 	39
17.34 	49
17.4 	42
17.46 	29
17.52 	29
17.58 	25
17.64 	37
17.7 	22
17.76 	35
17.82 	33
17.88 	32
17.94 	33
18 	36
18.06 	33
18.12 	30
18.18 	43
18.24 	23
18.3 	28
18.36 	28
18.42 	36
18.48 	29
18.54 	22
18.6 	22
18.66 	28
18.72 	29
18.78 	28
18.84 	31
18.9 	32
18.96 	31
19.02 	30
19.08 	37
19.14 	25
19.2 	27
19.26 	30
19.32 	22
19.38 	42
19.44 	17
19.5 	29
19.56 	28
19.62 	28
19.68 	28
19.74 	25
19.8 	30
19.86 	33
19.92 	29
19.98 	28
20.04 	39
20.1 	35
20.16 	39
20.22 	29
20.28 	33
20.34 	31
20.4 	40
20.46 	38
20.52 	32
20.58 	25
20.64 	37
20.7 	29
20.76 	38
20.82 	40
20.88 	27
20.94 	26
21 	33
21.06 	46
21.12 	36
21.18 	36
21.24 	28
21.3 	36
21.36 	25
21.42 	29
21.48 	32
21.54 	41
21.6 	28
21.66 	56
21.72 	41
21.78 	31
21.84 	35
21.9 	32
21.96 	39
22.02 	28
22.08 	31
22.14 	38
22.2 	30
22.26 	43
22.32 	30
22.38 	32
22.44 	38
22.5 	30
22.56 	28
22.62 	38
22.68 	42
22.74 	35
22.8 	26
22.86 	30
22.92 	25
22.98 	23
23.04 	30
23.1 	28
23.16 	27
23.22 	24
23.28 	37
23.34 	28
23.4 	39
23.46 	28
23.52 	32
23.58 	33
23.64 	30
23.7 	31
23.76 	34
23.82 	25
23.88 	33
23.94 	24
24 	29
24.06 	37
24.12 	25
24.18 	32
24.24 	31
24.3 	30
24.36 	27
24.42 	25
24.48 	33
24.54 	29
24.6 	36
24.66 	42
24.72 	35
24.78 	31
24.84 	28
24.9 	28
24.96 	32
25.02 	24
25.08 	33
25.14 	35
25.2 	25
25.26 	32
25.32 	30
25.38 	35
25.44 	30
25.5 	22
25.56 	33
25.62 	45
25.68 	25
25.74 	36
25.8 	21
25.86 	24
25.92 	28
25.98 	32
26.04 	37
26.1 	21
26.16 	19
26.22 	28
26.28 	24
26.34 	29
26.4 	21
26.46 	28
26.52 	21
26.58 	27
26.64 	35
26.7 	40
26.76 	35
26.82 	24
26.88 	29
26.94 	36
27 	23
27.06 	20
27.12 	28
27.18 	27
27.24 	21
27.3 	34
27.36 	20
27.42 	38
27.48 	30
27.54 	20
27.6 	34
27.66 	22
27.72 	37
27.78 	25
27.84 	34
27.9 	30
27.96 	19
28.02 	29
28.08 	25
28.14 	25
28.2 	34
28.26 	32
28.32 	32
28.38 	37
28.44 	32
28.5 	27
28.56 	24
28.62 	48
28.68 	32
28.74 	37
28.8 	25
28.86 	27
28.92 	28
28.98 	23
29.04 	37
29.1 	27
29.16 	25
29.22 	26
29.28 	31
29.34 	28
29.4 	33
29.46 	28
29.52 	21
29.58 	42
29.64 	33
29.7 	31
29.76 	21
29.82 	20
29.88 	31
29.94 	25
30 	37
30.06 	31
30.12 	30
30.18 	34
30.24 	37
30.3 	22
30.36 	37
30.42 	33
30.48 	33
30.54 	23
30.6 	17
30.66 	17
30.72 	29
30.78 	32
30.84 	23
30.9 	31
30.96 	21
31.02 	22
31.08 	30
31.14 	32
31.2 	23
31.26 	23
31.32 	37
31.38 	30
31.44 	25
31.5 	26
31.56 	24
31.62 	35
31.68 	26
31.74 	33
31.8 	29
31.86 	34
31.92 	25
31.98 	30
32.04 	27
32.1 	23
32.16 	25
32.22 	22
32.28 	21
32.34 	25
32.4 	26
32.46 	23
32.52 	19
32.58 	23
32.64 	21
32.7 	18
32.76 	21
32.82 	32
32.88 	31
32.94 	35
33 	24
33.06 	34
33.12 	23
33.18 	22
33.24 	25
33.3 	21
33.36 	29
33.42 	29
33.48 	37
33.54 	33
33.6 	35
33.66 	23
33.72 	22
33.78 	20
33.84 	20
33.9 	18
33.96 	29
34.02 	24
34.08 	33
34.14 	32
34.2 	17
34.26 	28
34.32 	27
34.38 	37
34.44 	37
34.5 	29
34.56 	28
34.62 	36
34.68 	34
34.74 	38
34.8 	43
34.86 	25
34.92 	32
34.98 	45
35.04 	40
35.1 	29
35.16 	54
35.22 	49
35.28 	71
35.34 	58
35.4 	76
35.46 	79
35.52 	45
35.58 	45
35.64 	65
35.7 	53
35.76 	43
35.82 	36
35.88 	41
35.94 	32
36 	36
36.06 	29
36.12 	33
36.18 	31
36.24 	28
36.3 	42
36.36 	34
36.42 	20
36.48 	34
36.54 	31
36.6 	24
36.66 	20
36.72 	31
36.78 	30
36.84 	30
36.9 	28
36.96 	36
37.02 	27
37.08 	46
37.14 	29
37.2 	37
37.26 	27
37.32 	39
37.38 	32
37.44 	39
37.5 	39
37.56 	41
37.62 	42
37.68 	42
37.74 	36
37.8 	37
37.86 	51
37.92 	52
37.98 	51
38.04 	55
38.1 	87
38.16 	136
38.22 	219
38.28 	286
38.34 	381
38.4 	611
38.46 	803
38.52 	675
38.58 	574
38.64 	351
38.7 	239
38.76 	151
38.82 	81
38.88 	68
38.94 	53
39 	57
39.06 	35
39.12 	74
39.18 	60
39.24 	68
39.3 	59
39.36 	65
39.42 	72
39.48 	60
39.54 	53
39.6 	68
39.66 	54
39.72 	46
39.78 	51
39.84 	54
39.9 	51
39.96 	78
40.02 	63
40.08 	108
40.14 	124
40.2 	167
40.26 	210
40.32 	208
40.38 	230
40.44 	277
40.5 	275
40.56 	264
40.62 	245
40.68 	183
40.74 	123
40.8 	103
40.86 	85
40.92 	75
40.98 	63
41.04 	38
41.1 	38
41.16 	48
41.22 	34
41.28 	44
41.34 	32
41.4 	37
41.46 	39
41.52 	29
41.58 	28
41.64 	22
41.7 	30
41.76 	44
41.82 	30
41.88 	38
41.94 	37
42 	43
42.06 	40
42.12 	36
42.18 	38
42.24 	39
42.3 	26
42.36 	31
42.42 	32
42.48 	30
42.54 	30
42.6 	24
42.66 	31
42.72 	34
42.78 	25
42.84 	26
42.9 	33
42.96 	20
43.02 	31
43.08 	27
43.14 	31
43.2 	27
43.26 	32
43.32 	28
43.38 	33
43.44 	32
43.5 	28
43.56 	29
43.62 	34
43.68 	30
43.74 	23
43.8 	24
43.86 	35
43.92 	39
43.98 	32
44.04 	29
44.1 	22
44.16 	22
44.22 	40
44.28 	53
44.34 	61
44.4 	74
44.46 	110
44.52 	199
44.58 	287
44.64 	357
44.7 	387
44.76 	264
44.82 	209
44.88 	110
44.94 	59
45 	27
45.06 	29
45.12 	29
45.18 	35
45.24 	25
45.3 	27
45.36 	20
45.42 	29
45.48 	32
45.54 	24
45.6 	25
45.66 	29
45.72 	30
45.78 	27
45.84 	18
45.9 	24
45.96 	25
46.02 	27
46.08 	18
46.14 	23
46.2 	22
46.26 	25
46.32 	23
46.38 	27
46.44 	25
46.5 	20
46.56 	26
46.62 	18
46.68 	21
46.74 	24
46.8 	21
46.86 	20
46.92 	27
46.98 	21
47.04 	23
47.1 	26
47.16 	21
47.22 	19
47.28 	25
47.34 	19
47.4 	23
47.46 	21
47.52 	22
47.58 	25
47.64 	23
47.7 	26
47.76 	21
47.82 	16
47.88 	19
47.94 	24
48 	15
48.06 	19
48.12 	11
48.18 	20
48.24 	19
48.3 	18
48.36 	30
48.42 	26
48.48 	17
48.54 	19
48.6 	18
48.66 	30
48.72 	24
48.78 	24
48.84 	32
48.9 	17
48.96 	22
49.02 	23
49.08 	20
49.14 	25
49.2 	19
49.26 	19
49.32 	14
49.38 	15
49.44 	14
49.5 	22
49.56 	19
49.62 	19
49.68 	21
49.74 	19
49.8 	18
49.86 	24
49.92 	16
49.98 	18
50.04 	25
50.1 	20
50.16 	13
50.22 	18
50.28 	24
50.34 	13
50.4 	11
50.46 	20
50.52 	12
50.58 	25
50.64 	21
50.7 	27
50.76 	13
50.82 	16
50.88 	22
50.94 	12
51 	25
51.06 	23
51.12 	16
51.18 	21
51.24 	18
51.3 	16
51.36 	21
51.42 	16
51.48 	11
51.54 	11
51.6 	8
51.66 	13
51.72 	22
51.78 	28
51.84 	22
51.9 	22
51.96 	26
52.02 	19
52.08 	13
52.14 	13
52.2 	20
52.26 	30
52.32 	14
52.38 	17
52.44 	21
52.5 	25
52.56 	13
52.62 	22
52.68 	24
52.74 	25
52.8 	26
52.86 	27
52.92 	21
52.98 	25
53.04 	31
53.1 	45
53.16 	34
53.22 	49
53.28 	48
53.34 	61
53.4 	67
53.46 	51
53.52 	52
53.58 	47
53.64 	39
53.7 	29
53.76 	29
53.82 	32
53.88 	21
53.94 	27
54 	18
54.06 	21
54.12 	23
54.18 	10
54.24 	15
54.3 	16
54.36 	10
54.42 	20
54.48 	16
54.54 	18
54.6 	25
54.66 	14
54.72 	10
54.78 	17
54.84 	19
54.9 	18
54.96 	14
55.02 	21
55.08 	19
55.14 	22
55.2 	11
55.26 	18
55.32 	24
55.38 	17
55.44 	15
55.5 	21
55.56 	22
55.62 	21
55.68 	11
55.74 	25
55.8 	22
55.86 	15
55.92 	15
55.98 	23
56.04 	23
56.1 	12
56.16 	21
56.22 	24
56.28 	14
56.34 	17
56.4 	19
56.46 	21
56.52 	27
56.58 	17
56.64 	16
56.7 	25
56.76 	17
56.82 	18
56.88 	20
56.94 	21
57 	25
57.06 	27
57.12 	17
57.18 	23
57.24 	24
57.3 	29
57.36 	18
57.42 	27
57.48 	18
57.54 	29
57.6 	24
57.66 	22
57.72 	13
57.78 	10
57.84 	27
57.9 	14
57.96 	19
58.02 	10
58.08 	21
58.14 	21
58.2 	18
58.26 	15
58.32 	16
58.38 	18
58.44 	15
58.5 	13
58.56 	15
58.62 	14
58.68 	13
58.74 	15
58.8 	18
58.86 	21
58.92 	23
58.98 	13
59.04 	16
59.1 	19
59.16 	25
59.22 	14
59.28 	18
59.34 	18
59.4 	9
59.46 	15
59.52 	13
59.58 	17
59.64 	19
59.7 	23
59.76 	16
59.82 	13
59.88 	14
59.94 	23
60 	13
60.06 	24
60.12 	22
60.18 	17
60.24 	18
60.3 	20
60.36 	27
60.42 	11
60.48 	26
60.54 	18
60.6 	19
60.66 	15
60.72 	18
60.78 	17
60.84 	17
60.9 	21
60.96 	18
61.02 	15
61.08 	17
61.14 	21
61.2 	21
61.26 	12
61.32 	20
61.38 	22
61.44 	23
61.5 	17
61.56 	18
61.62 	17
61.68 	17
61.74 	16
61.8 	16
61.86 	14
61.92 	12
61.98 	11
62.04 	12
62.1 	17
62.16 	17
62.22 	24
62.28 	16
62.34 	24
62.4 	13
62.46 	19
62.52 	21
62.58 	18
62.64 	30
62.7 	21
62.76 	19
62.82 	28
62.88 	21
62.94 	25
63 	36
63.06 	25
63.12 	30
63.18 	39
63.24 	30
63.3 	25
63.36 	41
63.42 	50
63.48 	61
63.54 	66
63.6 	61
63.66 	78
63.72 	70
63.78 	55
63.84 	55
63.9 	35
63.96 	33
64.02 	32
64.08 	26
64.14 	42
64.2 	24
64.26 	30
64.32 	24
64.38 	28
64.44 	21
64.5 	18
64.56 	27
64.62 	33
64.68 	31
64.74 	55
64.8 	59
64.86 	65
64.92 	96
64.98 	117
65.04 	140
65.1 	90
65.16 	107
65.22 	77
65.28 	65
65.34 	32
65.4 	33
65.46 	30
65.52 	31
65.58 	18
65.64 	35
65.7 	23
65.76 	17
65.82 	19
65.88 	19
65.94 	21
66 	17
66.06 	17
66.12 	18
66.18 	12
66.24 	24
66.3 	15
66.36 	21
66.42 	14
66.48 	26
66.54 	25
66.6 	16
66.66 	15
66.72 	16
66.78 	13
66.84 	15
66.9 	12
66.96 	22
67.02 	17
67.08 	19
67.14 	9
67.2 	18
67.26 	13
67.32 	19
67.38 	22
67.44 	18
67.5 	17
67.56 	18
67.62 	13
67.68 	11
67.74 	20
67.8 	19
67.86 	16
67.92 	20
67.98 	17
68.04 	19
68.1 	20
68.16 	17
68.22 	15
68.28 	10
68.34 	25
68.4 	16
68.46 	15
68.52 	16
68.58 	17
68.64 	12
68.7 	17
68.76 	19
68.82 	16
68.88 	24
68.94 	25
69 	29
69.06 	18
69.12 	17
69.18 	11
69.24 	19
69.3 	20
69.36 	27
69.42 	23
69.48 	24
69.54 	20
69.6 	23
69.66 	17
69.72 	13
69.78 	19
69.84 	14
69.9 	33
69.96 	21
70.02 	17
70.08 	17
70.14 	16
70.2 	20
70.26 	22
70.32 	19
70.38 	16
70.44 	32
70.5 	34
70.56 	24
70.62 	31
70.68 	24
70.74 	38
70.8 	44
70.86 	49
70.92 	50
70.98 	64
71.04 	78
71.1 	92
71.16 	60
71.22 	58
71.28 	51
71.34 	42
71.4 	53
71.46 	38
71.52 	33
71.58 	32
71.64 	32
71.7 	32
71.76 	24
71.82 	16
71.88 	28
71.94 	20
72 	22
72.06 	33
72.12 	25
72.18 	19
72.24 	12
72.3 	21
72.36 	21
72.42 	16
72.48 	28
72.54 	18
72.6 	22
72.66 	19
72.72 	18
72.78 	9
72.84 	18
72.9 	20
72.96 	17
73.02 	23
73.08 	19
73.14 	16
73.2 	21
73.26 	17
73.32 	25
73.38 	22
73.44 	17
73.5 	13
73.56 	22
73.62 	13
73.68 	13
73.74 	16
73.8 	14
73.86 	14
73.92 	18
73.98 	21
74.04 	8
74.1 	19
74.16 	17
74.22 	20
74.28 	23
74.34 	18
74.4 	21
74.46 	20
74.52 	22
74.58 	16
74.64 	23
74.7 	20
74.76 	17
74.82 	17
74.88 	13
74.94 	23
75 	25
75.06 	34
75.12 	26
75.18 	22
75.24 	21
75.3 	22
75.36 	18
75.42 	15
75.48 	17
75.54 	25
75.6 	13
75.66 	19
75.72 	24
75.78 	18
75.84 	27
75.9 	24
75.96 	24
76.02 	19
76.08 	20
76.14 	28
76.2 	34
76.26 	34
76.32 	33
76.38 	19
76.44 	32
76.5 	49
76.56 	37
76.62 	46
76.68 	43
76.74 	60
76.8 	58
76.86 	65
76.92 	62
76.98 	73
77.04 	42
77.1 	43
77.16 	48
77.22 	64
77.28 	48
77.34 	41
77.4 	30
77.46 	40
77.52 	24
77.58 	37
77.64 	35
77.7 	45
77.76 	43
77.82 	51
77.88 	53
77.93999 	107
78 	140
78.06 	217
78.12 	255
78.18 	206
78.24 	166
78.3 	169
78.36 	132
78.42 	105
78.48 	71
78.54 	46
78.6 	40
78.66 	40
78.72 	23
78.78 	27
78.84 	29
78.9 	17
78.96 	24
79.02 	26
79.08 	24
79.14 	24
79.2 	25
79.26 	18
79.32 	18
79.38 	35
79.43999 	18
79.5 	24
79.56 	27
79.62 	22
79.68 	22
79.74 	22
79.8 	17
79.86 	27
79.92 	19
79.98 	23
80.04 	21
80.1 	23
80.16 	19
80.22 	16
80.28 	21
80.34 	15
80.4 	15
80.46 	16
80.52 	19
80.58 	17
80.64 	21
80.7 	19
80.76 	12
80.82 	16
80.88 	16
80.93999 	18
81 	16
81.06 	17
81.12 	18
81.18 	14
81.24 	16
81.3 	15
81.36 	18
81.42 	25
81.48 	13
81.54 	14
81.6 	25
81.66 	17
81.72 	13
81.78 	23
81.84 	24
81.9 	25
81.96 	24
82.02 	31
82.08 	33
82.14 	33
82.2 	44
82.26 	68
82.32 	61
82.38 	53
82.43999 	49
82.5 	36
82.56 	69
82.62 	64
82.68 	38
82.74 	47
82.8 	31
82.86 	35
82.92 	27
82.98 	27
83.04 	20
83.1 	21
83.16 	20
83.22 	15
83.28 	18
83.34 	17
83.4 	18
83.46 	18
83.52 	19
83.58 	15
83.64 	14
83.7 	17
83.76 	14
83.82 	15
83.88 	14
83.93999 	14
84 	21
84.06 	16
84.12 	16
84.18 	18
84.24 	14
84.3 	19
84.36 	20
84.42 	13
84.48 	16
84.54 	15
84.6 	14
84.66 	13
84.72 	13
84.78 	15
84.84 	21
84.9 	13
84.96 	14
85.02 	18
85.08 	8
85.14 	14
85.2 	20
85.26 	14
85.32 	17
85.38 	18
85.43999 	18
85.5 	16
85.56 	16
85.62 	20
85.68 	19
85.74 	22
85.8 	20
85.86 	17
85.92 	19
85.98 	18
86.04 	15
86.1 	20
86.16 	21
86.22 	11
86.28 	15
86.34 	20
86.4 	19
86.46 	16
86.52 	23
86.58 	19
86.64 	17
86.7 	18
86.76 	17
86.82 	19
86.88 	19
86.93999 	19
87 	23
87.06 	20
87.12 	8
87.18 	19
87.24 	22
87.3 	15
87.36 	24
87.42 	18
87.48 	18
87.54 	10
87.6 	26
87.66 	16
87.72 	15
87.78 	17
87.84 	23
87.9 	19
87.96 	14
88.02 	18
88.08 	26
88.14 	10
88.2 	16
88.26 	18
88.32 	19
88.38 	11
88.43999 	14
88.5 	20
88.56 	11
88.62 	21
88.68 	10
88.74 	15
88.8 	14
88.86 	14
88.92 	19
88.98 	13
89.04 	24
89.1 	10
89.16 	11
89.22 	19
89.28 	11
89.34 	16
89.4 	20
89.46 	20
89.52 	14
89.58 	15
89.64 	13
89.7 	16
89.76 	16
89.82 	11
89.88 	10
89.93999 	21
90 	13