File: XRD/P710.asc
15 	51
15.06 	51
15.12 	39
15.18 	59
15.24 	47
15.3 	43
15.36 	38
15.42 	57
15.48 	54
15.54 	52
15.6 	53
15.66 	58
15.72 	53
15.78 	56
15.84 	49
15.9 	54
15.96 	48
16.02 	48
16.08 	53
16.14 	55
16.2 	57
16.26 	52
16.32 	65
16.38 	62
16.44 	38
16.5 	59
16.56 	50
16.62 	51
16.68 	45
16.74 	46
16.8 	57
16.86 	42
16.92 	44
16.98 	54
17.04 	37
17.1 	40
17.16 	46
17.22 	47
17.28 	37
17.34 	52
17.4 	35
17.46 	40
17.52 	36
17.58 	36
17.64 	32
17.7 	37
17.76 	32
17.82 	26
17.88 	25
17.94 	33
18 	27
18.06 	26
18.12 	26
18.18 	27
18.24 	26
18.3 	28
18.36 	35
18.42 	32
18.48 	28
18.54 	33
18.6 	27
18.66 	33
18.72 	26
18.78 	21
18.84 	33
18.9 	29
18.96 	31
19.02 	26
19.08 	33
19.14 	27
19.2 	24
19.26 	31
19.32 	23
19.38 	30
19.44 	31
19.5 	29
19.56 	31
19.62 	37
19.68 	24
19.74 	24
19.8 	30
19.86 	30
19.92 	33
19.98 	35
20.04 	30
20.1 	26
20.16 	43
20.22 	32
20.28 	39
20.34 	32
20.4 	31
20.46 	37
20.52 	36
20.58 	38
20.64 	38
20.7 	35
20.76 	32
20.82 	35
20.88 	24
20.94 	24
21 	34
21.06 	44
21.12 	29
21.18 	34
21.24 	31
21.3 	37
21.36 	29
21.42 	29
21.48 	28
21.54 	31
21.6 	29
21.66 	33
21.72 	37
21.78 	37
21.84 	22
21.9 	37
21.96 	36
22.02 	42
22.08 	35
22.14 	33
22.2 	35
22.26 	34
22.32 	30
22.38 	29
22.44 	38
22.5 	28
22.56 	33
22.62 	34
22.68 	33
22.74 	20
22.8 	29
22.86 	43
22.92 	36
22.98 	34
23.04 	26
23.1 	28
23.16 	31
23.22 	27
23.28 	22
23.34 	25
23.4 	32
23.46 	28
23.52 	21
23.58 	42
23.64 	27
23.7 	26
23.76 	22
23.82 	26
23.88 	27
23.94 	26
24 	24
24.06 	29
24.12 	31
24.18 	32
24.24 	27
24.3 	20
24.36 	30
24.42 	23
24.48 	26
24.54 	24
24.6 	18
24.66 	20
24.72 	24
24.78 	43
24.84 	25
24.9 	31
24.96 	23
25.02 	34
25.08 	30
25.14 	29
25.2 	24
25.26 	22
25.32 	27
25.38 	27
25.44 	18
25.5 	32
25.56 	26
25.62 	22
25.68 	27
25.74 	31
25.8 	28
25.86 	27
25.92 	28
25.98 	22
26.04 	28
26.1 	19
26.16 	18
26.22 	17
26.28 	28
26.34 	32
26.4 	28
26.46 	22
26.52 	34
26.58 	29
26.64 	34
26.7 	30
26.76 	25
26.82 	28
26.88 	18
26.94 	27
27 	21
27.06 	25
27.12 	26
27.18 	21
27.24 	21
27.3 	33
27.36 	26
27.42 	26
27.48 	15
27.54 	17
27.6 	25
27.66 	22
27.72 	25
27.78 	28
27.84 	24
27.9 	35
27.96 	24
28.02 	21
28.08 	24
28.14 	21
28.2 	23
28.26 	19
28.32 	31
28.38 	21
28.44 	23
28.5 	23
28.56 	24
28.62 	17
28.68 	29
28.74 	20
28.8 	21
28.86 	22
28.92 	30
28.98 	27
29.04 	26
29.1 	16
29.16 	17
29.22 	22
29.28 	20
29.34 	21
29.4 	22
29.46 	20
29.52 	22
29.58 	22
29.64 	25
29.7 	29
29.76 	24
29.82 	23
29.88 	22
29.94 	21
30 	24
30.06 	32
30.12 	24
30.18 	27
30.24 	18
30.3 	27
30.36 	11
30.42 	18
30.48 	20
30.54 	23
30.6 	24
30.66 	21
30.72 	28
30.78 	21
30.84 	22
30.9 	24
30.96 	28
31.02 	23
31.08 	27
31.14 	17
31.2 	28
31.26 	20
31.32 	18
31.38 	15
31.44 	21
31.5 	15
31.56 	27
31.62 	24
31.68 	16
31.74 	21
31.8 	25
31.86 	21
31.92 	23
31.98 	17
32.04 	18
32.1 	18
32.16 	20
32.22 	10
32.28 	16
32.34 	18
32.4 	23
32.46 	13
32.52 	24
32.58 	17
32.64 	14
32.7 	21
32.76 	23
32.82 	17
32.88 	16
32.94 	17
33 	20
33.06 	18
33.12 	30
33.18 	20
33.24 	27
33.3 	30
33.36 	29
33.42 	17
33.48 	24
33.54 	13
33.6 	25
33.66 	22
33.72 	8
33.78 	30
33.84 	17
33.9 	21
33.96 	24
34.02 	19
34.08 	15
34.14 	23
34.2 	19
34.26 	19
34.32 	18
34.38 	17
34.44 	25
34.5 	20
34.56 	23
34.62 	37
34.68 	22
34.74 	18
34.8 	27
34.86 	23
34.92 	27
34.98 	25
35.04 	28
35.1 	29
35.16 	37
35.22 	35
35.28 	56
35.34 	59
35.4 	61
35.46 	64
35.52 	57
35.58 	35
35.64 	26
35.7 	30
35.76 	28
35.82 	24
35.88 	20
35.94 	34
36 	23
36.06 	11
36.12 	25
36.18 	21
36.24 	22
36.3 	24
36.36 	27
36.42 	22
36.48 	18
36.54 	22
36.6 	20
36.66 	18
36.72 	24
36.78 	17
36.84 	24
36.9 	19
36.96 	22
37.02 	21
37.08 	27
37.14 	23
37.2 	35
37.26 	24
37.32 	30
37.38 	27
37.44 	33
37.5 	23
37.56 	32
37.62 	27
37.68 	21
37.74 	28
37.8 	26
37.86 	44
37.92 	46
37.98 	40
38.04 	61
38.1 	73
38.16 	131
38.22 	256
38.28 	483
38.34 	969
38.4 	1229
38.46 	880
38.52 	577
38.58 	288
38.64 	153
38.7 	123
38.76 	68
38.82 	55
38.88 	32
38.94 	40
39 	40
39.06 	32
39.12 	57
39.18 	63
39.24 	56
39.3 	42
39.36 	52
39.42 	40
39.48 	34
39.54 	38
39.6 	37
39.66 	36
39.72 	38
39.78 	32
39.84 	37
39.9 	39
39.96 	55
40.02 	35
40.08 	76
40.14 	102
40.2 	104
40.26 	109
40.32 	150
40.38 	169
40.44 	181
40.5 	190
40.56 	195
40.62 	174
40.68 	98
40.74 	71
40.8 	69
40.86 	44
40.92 	41
40.98 	51
41.04 	39
41.1 	21
41.16 	33
41.22 	20
41.28 	33
41.34 	30
41.4 	24
41.46 	29
41.52 	20
41.58 	26
41.64 	28
41.7 	18
41.76 	30
41.82 	22
41.88 	18
41.94 	17
42 	15
42.06 	21
42.12 	18
42.18 	18
42.24 	20
42.3 	25
42.36 	16
42.42 	22
42.48 	19
42.54 	22
42.6 	15
42.66 	22
42.72 	25
42.78 	25
42.84 	16
42.9 	22
42.96 	15
43.02 	15
43.08 	14
43.14 	23
43.2 	26
43.26 	22
43.32 	24
43.38 	18
43.44 	18
43.5 	23
43.56 	25
43.62 	19
43.68 	26
43.74 	16
43.8 	19
43.86 	21
43.92 	29
43.98 	20
44.04 	34
44.1 	23
44.16 	24
44.22 	28
44.28 	38
44.34 	63
44.4 	64
44.46 	195
44.52 	464
44.58 	520
44.64 	516
44.7 	370
44.76 	240
44.82 	100
44.88 	45
44.94 	32
45 	19
45.06 	29
45.12 	26
45.18 	24
45.24 	26
45.3 	17
45.36 	23
45.42 	14
45.48 	24
45.54 	13
45.6 	14
45.66 	16
45.72 	20
45.78 	21
45.84 	20
45.9 	18
45.96 	20
46.02 	19
46.08 	20
46.14 	15
46.2 	22
46.26 	26
46.32 	19
46.38 	16
46.44 	18
46.5 	15
46.56 	16
46.62 	21
46.68 	17
46.74 	23
46.8 	18
46.86 	20
46.92 	15
46.98 	16
47.04 	27
47.1 	22
47.16 	24
47.22 	17
47.28 	15
47.34 	9
47.4 	15
47.46 	10
47.52 	21
47.58 	13
47.64 	19
47.7 	21
47.76 	20
47.82 	16
47.88 	11
47.94 	18
48 	19
48.06 	18
48.12 	13
48.18 	12
48.24 	13
48.3 	15
48.36 	13
48.42 	6
48.48 	16
48.54 	16
48.6 	15
48.66 	10
48.72 	20
48.78 	18
48.84 	13
48.9 	19
48.96 	16
49.02 	18
49.08 	12
49.14 	16
49.2 	14
49.26 	9
49.32 	17
49.38 	19
49.44 	20
49.5 	17
49.56 	13
49.62 	12
49.68 	14
49.74 	11
49.8 	15
49.86 	16
49.92 	24
49.98 	21
50.04 	12
50.1 	12
50.16 	12
50.22 	20
50.28 	17
50.34 	12
50.4 	12
50.46 	15
50.52 	13
50.58 	7
50.64 	15
50.7 	9
50.76 	17
50.82 	20
50.88 	11
50.94 	13
51 	8
51.06 	19
51.12 	11
51.18 	15
51.24 	7
51.3 	16
51.36 	11
51.42 	10
51.48 	14
51.54 	10
51.6 	14
51.66 	15
51.72 	16
51.78 	11
51.84 	12
51.9 	16
51.96 	19
52.02 	13
52.08 	9
52.14 	17
52.2 	7
52.26 	14
52.32 	9
52.38 	12
52.44 	15
52.5 	14
52.56 	12
52.62 	17
52.68 	22
52.74 	14
52.8 	12
52.86 	17
52.92 	19
52.98 	21
53.04 	25
53.1 	17
53.16 	30
53.22 	31
53.28 	28
53.34 	43
53.4 	29
53.46 	30
53.52 	33
53.58 	18
53.64 	22
53.7 	26
53.76 	11
53.82 	23
53.88 	14
53.94 	17
54 	14
54.06 	15
54.12 	15
54.18 	18
54.24 	14
54.3 	17
54.36 	9
54.42 	14
54.48 	15
54.54 	14
54.6 	18
54.66 	6
54.72 	10
54.78 	11
54.84 	5
54.9 	14
54.96 	20
55.02 	14
55.08 	9
55.14 	12
55.2 	13
55.26 	14
55.32 	18
55.38 	7
55.44 	16
55.5 	10
55.56 	13
55.62 	12
55.68 	9
55.74 	13
55.8 	12
55.86 	11
55.92 	20
55.98 	16
56.04 	8
56.1 	13
56.16 	15
56.22 	15
56.28 	20
56.34 	16
56.4 	12
56.46 	14
56.52 	12
56.58 	16
56.64 	9
56.7 	10
56.76 	19
56.82 	9
56.88 	13
56.94 	9
57 	12
57.06 	12
57.12 	18
57.18 	17
57.24 	13
57.3 	8
57.36 	10
57.42 	13
57.48 	17
57.54 	6
57.6 	6
57.66 	4
57.72 	13
57.78 	14
57.84 	10
57.9 	15
57.96 	17
58.02 	11
58.08 	12
58.14 	12
58.2 	12
58.26 	16
58.32 	14
58.38 	12
58.44 	17
58.5 	13
58.56 	21
58.62 	6
58.68 	7
58.74 	12
58.8 	14
58.86 	10
58.92 	9
58.98 	9
59.04 	14
59.1 	9
59.16 	6
59.22 	12
59.28 	12
59.34 	7
59.4 	12
59.46 	15
59.52 	12
59.58 	10
59.64 	10
59.7 	11
59.76 	11
59.82 	18
59.88 	17
59.94 	19
60 	9
60.06 	12
60.12 	10
60.18 	15
60.24 	13
60.3 	15
60.36 	9
60.42 	10
60.48 	8
60.54 	10
60.6 	14
60.66 	9
60.72 	12
60.78 	8
60.84 	12
60.9 	11
60.96 	12
61.02 	18
61.08 	17
61.14 	7
61.2 	9
61.26 	9
61.32 	15
61.38 	13
61.44 	12
61.5 	12
61.56 	13
61.62 	10
61.68 	20
61.74 	7
61.8 	9
61.86 	15
61.92 	18
61.98 	18
62.04 	14
62.1 	11
62.16 	6
62.22 	8
62.28 	20
62.34 	10
62.4 	9
62.46 	13
62.52 	16
62.58 	16
62.64 	16
62.7 	15
62.76 	17
62.82 	11
62.88 	15
62.94 	15
63 	19
63.06 	20
63.12 	13
63.18 	24
63.24 	25
63.3 	32
63.36 	28
63.42 	28
63.48 	16
63.54 	38
63.6 	27
63.66 	32
63.72 	31
63.78 	24
63.84 	31
63.9 	24
63.96 	18
64.02 	18
64.08 	13
64.14 	14
64.2 	18
64.26 	13
64.32 	18
64.38 	12
64.44 	15
64.5 	11
64.56 	22
64.62 	23
64.68 	23
64.74 	26
64.8 	40
64.86 	77
64.92 	188
64.98 	219
65.04 	146
65.1 	131
65.16 	138
65.22 	86
65.28 	42
65.34 	36
65.4 	14
65.46 	16
65.52 	9
65.58 	14
65.64 	17
65.7 	14
65.76 	19
65.82 	9
65.88 	17
65.94 	8
66 	13
66.06 	13
66.12 	10
66.18 	14
66.24 	17
66.3 	15
66.36 	11
66.42 	6
66.48 	11
66.54 	9
66.6 	18
66.66 	12
66.72 	16
66.78 	12
66.84 	19
66.9 	15
66.96 	13
67.02 	10
67.08 	14
67.14 	9
67.2 	11
67.26 	12
67.32 	8
67.38 	18
67.44 	16
67.5 	14
67.56 	14
67.62 	14
67.68 	8
67.74 	9
67.8 	13
67.86 	12
67.92 	9
67.98 	14
68.04 	12
68.1 	14
68.16 	14
68.22 	15
68.28 	10
68.34 	15
68.4 	11
68.46 	12
68.52 	12
68.58 	14
68.64 	8
68.7 	13
68.76 	12
68.82 	10
68.88 	11
68.94 	9
69 	11
69.06 	15
69.12 	23
69.18 	13
69.24 	11
69.3 	16
69.36 	12
69.42 	13
69.48 	16
69.54 	13
69.6 	12
69.66 	13
69.72 	12
69.78 	11
69.84 	14
69.9 	15
69.96 	9
70.02 	13
70.08 	17
70.14 	12
70.2 	14
70.26 	12
70.32 	10
70.38 	29
70.44 	25
70.5 	20
70.56 	22
70.62 	25
70.68 	30
70.74 	18
70.8 	32
70.86 	20
70.92 	29
70.98 	29
71.04 	45
71.1 	51
71.16 	32
71.22 	37
71.28 	35
71.34 	19
71.4 	22
71.46 	15
71.52 	13
71.58 	11
71.64 	18
71.7 	14
71.76 	14
71.82 	10
71.88 	12
71.94 	9
72 	18
72.06 	20
72.12 	16
72.18 	8
72.24 	21
72.3 	9
72.36 	10
72.42 	11
72.48 	13
72.54 	6
72.6 	14
72.66 	15
72.72 	14
72.78 	15
72.84 	15
72.9 	13
72.96 	14
73.02 	15
73.08 	12
73.14 	9
73.2 	8
73.26 	10
73.32 	7
73.38 	16
73.44 	6
73.5 	7
73.56 	15
73.62 	8
73.68 	11
73.74 	13
73.8 	16
73.86 	12
73.92 	12
73.98 	8
74.04 	10
74.1 	8
74.16 	12
74.22 	8
74.28 	13
74.34 	13
74.4 	16
74.46 	13
74.52 	12
74.58 	17
74.64 	15
74.7 	19
74.76 	13
74.82 	16
74.88 	11
74.94 	15
75 	20
75.06 	13
75.12 	16
75.18 	17
75.24 	12
75.3 	8
75.36 	7
75.42 	15
75.48 	11
75.54 	16
75.6 	20
75.66 	13
75.72 	18
75.78 	10
75.84 	17
75.9 	9
75.96 	14
76.02 	14
76.08 	16
76.14 	16
76.2 	14
76.26 	10
76.32 	13
76.38 	14
76.44 	26
76.5 	22
76.56 	28
76.62 	32
76.68 	37
76.74 	26
76.8 	33
76.86 	23
76.92 	26
76.98 	28
77.04 	20
77.1 	24
77.16 	26
77.22 	28
77.28 	19
77.34 	25
77.4 	20
77.46 	25
77.52 	18
77.58 	33
77.64 	21
77.7 	35
77.76 	28
77.82 	33
77.88 	59
77.93999 	66
78 	129
78.06 	244
78.12 	176
78.18 	106
78.24 	125
78.3 	130
78.36 	98
78.42 	42
78.48 	43
78.54 	27
78.6 	24
78.66 	25
78.72 	20
78.78 	13
78.84 	13
78.9 	9
78.96 	12
79.02 	10
79.08 	9
79.14 	12
79.2 	12
79.26 	20
79.32 	6
79.38 	5
79.43999 	15
79.5 	15
79.56 	9
79.62 	9
79.68 	7
79.74 	11
79.8 	16
79.86 	24
79.92 	9
79.98 	8
80.04 	13
80.1 	6
80.16 	14
80.22 	14
80.28 	10
80.34 	13
80.4 	11
80.46 	12
80.52 	11
80.58 	11
80.64 	9
80.7 	9
80.76 	14
80.82 	13
80.88 	8
80.93999 	8
81 	6
81.06 	18
81.12 	4
81.18 	12
81.24 	16
81.3 	11
81.36 	10
81.42 	18
81.48 	10
81.54 	11
81.6 	16
81.66 	12
81.72 	14
81.78 	8
81.84 	6
81.9 	13
81.96 	8
82.02 	16
82.08 	9
82.14 	30
82.2 	41
82.26 	80
82.32 	77
82.38 	41
82.43999 	38
82.5 	45
82.56 	47
82.62 	34
82.68 	32
82.74 	10
82.8 	17
82.86 	16
82.92 	14
82.98 	19
83.04 	10
83.1 	9
83.16 	11
83.22 	4
83.28 	10
83.34 	11
83.4 	10
83.46 	11
83.52 	6
83.58 	14
83.64 	9
83.7 	16
83.76 	11
83.82 	10
83.88 	4
83.93999 	8
84 	11
84.06 	4
84.12 	13
84.18 	9
84.24 	6
84.3 	11
84.36 	8
84.42 	10
84.48 	11
84.54 	5
84.6 	9
84.66 	9
84.72 	11
84.78 	7
84.84 	6
84.9 	12
84.96 	16
85.02 	14
85.08 	12
85.14 	14
85.2 	13
85.26 	6
85.32 	7
85.38 	11
85.43999 	6
85.5 	13
85.56 	9
85.62 	12
85.68 	9
85.74 	12
85.8 	10
85.86 	9
85.92 	13
85.98 	5
86.04 	14
86.1 	12
86.16 	14
86.22 	12
86.28 	10
86.34 	9
86.4 	12
86.46 	10
86.52 	6
86.58 	12
86.64 	8
86.7 	12
86.76 	12
86.82 	9
86.88 	22
86.93999 	12
87 	12
87.06 	8
87.12 	18
87.18 	10
87.24 	4
87.3 	10
87.36 	10
87.42 	7
87.48 	9
87.54 	10
87.6 	13
87.66 	6
87.72 	12
87.78 	10
87.84 	16
87.9 	12
87.96 	13
88.02 	11
88.08 	12
88.14 	8
88.2 	9
88.26 	12
88.32 	8
88.38 	11
88.43999 	3
88.5 	6
88.56 	8
88.62 	4
88.68 	16
88.74 	12
88.8 	5
88.86 	13
88.92 	10
88.98 	7
89.04 	9
89.1 	15
89.16 	9
89.22 	7
89.28 	6
89.34 	13
89.4 	8
89.46 	10
89.52 	12
89.58 	5
89.64 	12
89.7 	11
89.76 	11
89.82 	11
89.88 	10
89.93999 	8
90 	5